timestamp_ms,dt_ms,pos_x,pos_y,pos_z,vel_x,vel_y,vel_z,roll_deg,pitch_deg,yaw_deg,gyro_bias_x,gyro_bias_y,gyro_bias_z,accel_bias_x,accel_bias_y,accel_bias_z,raw_accel_x,raw_accel_y,raw_accel_z,raw_gyro_x,raw_gyro_y,raw_gyro_z,raw_mag_x,raw_mag_y,raw_mag_z,raw_baro_alt,raw_tof,raw_flow_squal,raw_flow_dx,raw_flow_dy,dev_pos_x,dev_pos_y,dev_pos_z,dev_vel_x,dev_vel_y,dev_vel_z,dev_roll_deg,dev_pitch_deg,dev_yaw_deg
11327,10.0,-0.000460,-0.000050,-0.316938,-0.047631,-0.000489,-0.001187,-0.0058,0.0089,0.0010,0.00000000,0.00000000,0.00000000,-0.00151348,0.00339969,0.00000000,-0.3293,0.8976,-9.8495,-0.006445,-0.001856,-0.022963,26.1084,16.4875,33.7145,-3.3768,0.3170,111,-1,0,-0.002872,-0.000981,-0.316721,-0.014061,0.003677,0.007945,-2.8117,-2.0271,1.4500
11338,11.0,-0.001010,-0.000649,-0.316946,-0.051476,-0.022410,-0.000393,-0.2804,-0.0043,0.0070,0.00000053,0.00000007,-0.00000001,-0.00151007,0.00376802,0.00000004,-0.3261,0.9189,-9.7298,-0.028913,0.006086,-0.009972,26.1084,16.4875,33.7145,-3.3768,0.3180,101,-1,-1,-0.003321,-0.000975,-0.317053,-0.018827,0.004629,0.002869,-2.8699,-1.9620,1.5617
11349,11.0,-0.001055,-0.001257,-0.315051,-0.036763,-0.027499,0.084484,-0.5363,-0.3203,-0.0185,0.00000126,0.00000102,0.00000005,-0.00209532,0.00421160,-0.00005009,-0.3580,0.8705,-9.6397,-0.023997,0.006939,-0.003052,26.1084,17.5681,34.5420,-3.3768,0.3180,112,0,-1,-0.003775,-0.001461,-0.317024,-0.023041,0.000321,0.003160,-2.9145,-1.9084,1.7345
11361,12.0,-0.001060,-0.001326,-0.317924,-0.027890,-0.014151,-0.028605,-0.3949,-0.7663,-0.0378,0.00000082,0.00000301,0.00000023,-0.00284121,0.00386501,0.00004627,-0.4203,0.7224,-9.8293,0.007949,-0.012069,-0.016042,26.1084,17.5681,34.5420,-3.3768,0.3180,110,0,0,-0.003834,-0.001941,-0.316882,-0.018181,-0.002028,0.005535,-2.9423,-2.0572,1.8337
11372,11.0,-0.001052,-0.001350,-0.318137,-0.022641,-0.004491,-0.027651,-0.2757,-1.1503,-0.0324,0.00000021,0.00000520,0.00000042,-0.00352755,0.00367584,0.00000904,-0.4606,0.7286,-9.9777,0.019696,-0.009696,-0.032908,26.1084,17.5681,34.5420,-3.3768,0.3170,108,0,0,-0.003822,-0.001921,-0.316562,-0.015564,-0.000619,0.008002,-2.8676,-2.1562,1.8559
11384,12.0,-0.001170,-0.001384,-0.318476,-0.020643,0.003920,-0.028715,-0.3686,-1.3781,-0.0153,0.00000116,0.00000700,0.00000055,-0.00393865,0.00376484,0.00001467,-0.4071,0.8599,-9.8787,0.005144,0.014278,-0.031572,26.1084,17.5681,34.5420,-3.3768,0.3170,110,0,0,-0.003848,-0.001880,-0.316387,-0.012438,0.003367,0.005307,-2.6953,-2.2943,1.9222
11395,11.0,-0.001297,-0.001328,-0.317171,-0.017726,0.011816,0.000650,-0.3402,-1.5012,-0.0100,0.00000141,0.00000821,0.00000064,-0.00421537,0.00387037,-0.00094997,-0.1990,0.8416,-9.7623,0.067762,0.010307,-0.052410,26.1084,17.5681,34.5420,-3.3768,0.3170,113,0,0,-0.003985,-0.001880,-0.316260,-0.012683,0.007283,0.006153,-2.5742,-2.3053,1.9845
11406,11.0,-0.001429,-0.001217,-0.317156,-0.015926,0.020611,0.002240,-0.4429,-1.5953,-0.0051,0.00000345,0.00000927,0.00000071,-0.00439957,0.00409388,-0.00094647,-0.2501,1.0900,-9.6450,0.097891,0.007603,-0.017675,26.1084,17.5681,34.5420,-3.3768,0.3180,113,0,0,-0.004094,-0.001791,-0.316199,-0.011671,0.009660,0.006465,-2.5186,-2.2934,1.9897
11417,11.0,-0.001479,-0.001529,-0.317031,-0.011112,0.014826,0.004720,-1.3445,-1.7859,0.0079,0.00001561,0.00001162,0.00000068,-0.00475015,0.00588848,-0.00111686,-0.1283,1.0616,-9.6446,0.081022,-0.010699,0.018109,26.1084,17.5681,34.5420,-3.3768,0.3180,123,0,-1,-0.004249,-0.001549,-0.316978,-0.008214,0.019488,-0.000150,-2.3468,-2.3150,2.0591
11428,11.0,-0.001476,-0.001464,-0.317528,-0.007102,0.017607,-0.002390,-1.6056,-1.9932,-0.0094,0.00001998,0.00001452,0.00000090,-0.00509444,0.00624677,-0.00003834,-0.2646,0.8983,-9.7309,0.030584,-0.013888,0.024484,26.1084,17.5681,34.5420,-3.3768,0.3180,120,0,0,-0.004259,-0.001889,-0.316976,-0.005112,0.017877,0.001077,-2.2820,-2.3574,2.1721
11439,11.0,-0.001836,-0.001813,-0.317515,-0.015024,0.006133,-0.003374,-2.4702,-1.5671,0.0494,0.00003550,0.00000678,-0.00000024,-0.00428017,0.00790665,-0.00024360,-0.3313,0.7135,-9.8829,0.015947,-0.020037,0.025388,26.1084,17.5681,34.5420,-3.3768,0.3160,117,-1,-1,-0.004602,-0.002214,-0.316016,-0.007234,0.014770,0.011452,-2.2316,-2.3509,2.4002
11450,11.0,-0.001856,-0.001796,-0.317568,-0.011253,0.006762,-0.005752,-2.5775,-1.7906,-0.0065,0.00003796,0.00001137,0.00000008,-0.00468531,0.00806732,-0.00023196,-0.3212,0.6785,-9.9918,0.002366,-0.007032,0.007410,26.8960,17.5756,32.8640,-3.4878,0.3160,121,0,0,-0.004531,-0.002179,-0.315912,-0.004901,0.014572,0.009720,-2.1735,-2.4040,2.4494
11462,12.0,-0.001990,-0.001765,-0.316250,-0.010445,0.009462,0.008752,-2.5460,-1.7601,-0.0000,0.00003871,0.00001125,0.00000005,-0.00482172,0.00855013,-0.00593513,-0.2268,0.7358,-9.9758,0.026876,0.019610,-0.013498,26.8960,17.5756,32.8640,-3.4878,0.3160,122,0,0,-0.004499,-0.002164,-0.315722,-0.002951,0.015386,0.008905,-2.0715,-2.4507,2.5275
11473,11.0,-0.002144,-0.001694,-0.316161,-0.010513,0.012286,0.007752,-2.6015,-1.6834,0.0028,0.00004146,0.00000943,-0.00000013,-0.00471856,0.00866016,-0.00594298,-0.1964,0.8645,-9.8712,0.048422,0.024773,-0.008574,26.8960,17.5756,32.8640,-3.4878,0.3170,124,0,0,-0.004710,-0.002074,-0.316102,-0.002069,0.018910,-0.000283,-1.9018,-2.4295,2.6675
11484,11.0,-0.002234,-0.002018,-0.315976,-0.008553,0.003795,0.009109,-3.1259,-1.6994,0.0079,0.00006026,0.00001016,-0.00000044,-0.00477841,0.00978792,-0.00664625,-0.1567,0.8452,-9.7455,0.055094,0.006439,0.006099,26.8960,17.5756,32.8640,-3.4878,0.3170,116,0,-1,-0.004837,-0.001994,-0.316111,-0.002052,0.021039,-0.001096,-1.8579,-2.3922,2.5969
11495,11.0,-0.002252,-0.002341,-0.316186,-0.005005,-0.003582,0.006250,-3.5189,-1.7731,0.0005,0.00007698,0.00001249,-0.00000047,-0.00488081,0.01043525,-0.00471809,-0.1195,0.8000,-9.6983,0.070976,-0.013174,0.013037,26.8960,17.5756,32.8640,-3.4878,0.3170,116,0,-1,-0.004903,-0.002361,-0.316123,-0.000508,0.018327,-0.001002,-1.7857,-2.4056,2.7100
11506,11.0,-0.002264,-0.002278,-0.316031,-0.002655,0.000413,0.008061,-3.3745,-1.8162,-0.0013,0.00007267,0.00001411,-0.00000027,-0.00496553,0.01029238,-0.00531807,-0.1744,0.7488,-9.7163,0.072719,-0.012378,0.008139,26.8960,17.5756,32.8640,-3.4878,0.3160,120,0,0,-0.004879,-0.002599,-0.315988,0.003748,0.018352,0.002617,-1.6171,-2.4314,2.8334
11517,11.0,-0.002356,-0.002251,-0.315939,-0.003926,0.001551,0.008558,-3.3441,-1.7440,0.0002,0.00007198,0.00001097,-0.00000048,-0.00485022,0.01024782,-0.00532095,-0.2848,0.6499,-9.7458,0.025033,0.018407,0.015268,26.8960,17.5756,32.8640,-3.4878,0.3160,116,0,0,-0.004867,-0.002486,-0.315657,0.004998,0.020717,0.006810,-1.5316,-2.4279,2.8620
11528,11.0,-0.002452,-0.002261,-0.315499,-0.005622,0.001222,0.012321,-3.3562,-1.6891,-0.0001,0.00007302,0.00000866,-0.00000066,-0.00484144,0.01050501,-0.00826896,-0.3547,0.5896,-9.8208,-0.010014,0.023688,-0.004310,26.8960,17.5756,32.8640,-3.4508,0.3160,119,0,0,-0.005032,-0.002408,-0.315513,0.003445,0.022382,0.007564,-1.3613,-2.4175,3.0425
11539,11.0,-0.002532,-0.002300,-0.315374,-0.006992,0.001154,0.010611,-3.4264,-1.6674,0.0018,0.00007648,0.00000822,-0.00000081,-0.00480942,0.01058269,-0.00828188,-0.3993,0.7132,-9.9403,-0.035106,0.022544,-0.012760,27.6863,16.1347,33.6915,-3.4508,0.3160,112,0,0,-0.005122,-0.002411,-0.315502,0.002158,0.022868,0.006519,-1.2730,-2.4186,3.1397
11550,11.0,-0.002700,-0.002335,-0.315181,-0.009795,0.002751,0.010057,-3.4854,-1.5796,0.0017,0.00008006,0.00000338,-0.00000130,-0.00470907,0.01073590,-0.00914040,-0.3767,0.8741,-9.9221,-0.026031,0.042488,-0.008533,27.6863,16.1347,33.6915,-3.4508,0.3160,108,0,0,-0.005193,-0.002424,-0.315446,0.000968,0.023223,0.005148,-1.2641,-2.4211,3.2021
11561,11.0,-0.002906,-0.002306,-0.315200,-0.012101,0.006023,0.008676,-3.4910,-1.4885,0.0015,0.00008210,-0.00000246,-0.00000183,-0.00454466,0.01064703,-0.00788953,-0.2941,0.9591,-9.7586,0.027199,0.042008,-0.005185,27.6863,16.1347,33.6915,-3.4508,0.3160,115,0,0,-0.005488,-0.002452,-0.315280,-0.002524,0.027465,0.004137,-1.1944,-2.3924,3.3587
11572,11.0,-0.003055,-0.002190,-0.315040,-0.012711,0.010713,0.009367,-3.4082,-1.4703,-0.0005,0.00008025,-0.00000334,-0.00000185,-0.00454508,0.01066136,-0.00856258,-0.2888,0.9781,-9.7846,0.100915,0.015383,-0.000815,27.6863,16.1347,33.6915,-3.4508,0.3150,112,0,0,-0.005678,-0.002420,-0.315237,-0.003996,0.031422,0.004595,-1.0819,-2.3823,3.4668
11583,11.0,-0.003202,-0.002044,-0.314946,-0.013309,0.013475,0.007578,-3.3329,-1.4591,-0.0004,0.00007982,-0.00000357,-0.00000184,-0.00453316,0.01061732,-0.00856284,-0.3061,0.8317,-9.9457,0.110843,0.013349,0.011162,27.6863,16.1347,33.6915,-3.4508,0.3150,117,0,0,-0.005984,-0.002158,-0.314720,-0.005397,0.038817,0.008083,-0.8580,-2.3752,3.2576
11594,11.0,-0.003489,-0.001952,-0.314550,-0.016553,0.013549,0.012058,-3.3246,-1.3494,0.0032,0.00008392,-0.00001333,-0.00000280,-0.00446931,0.01092560,-0.01173288,-0.2998,0.6856,-9.7203,0.056419,0.055769,0.021600,27.6863,16.1347,33.6915,-3.4297,0.3150,110,0,0,-0.006150,-0.002025,-0.314564,-0.006144,0.040393,0.007969,-0.7906,-2.3645,3.3249
11605,11.0,-0.003811,-0.002281,-0.314407,-0.019067,0.004463,0.014551,-3.5251,-1.2400,0.0091,0.00011952,-0.00002378,-0.00000470,-0.00432509,0.01144410,-0.01184525,-0.2110,0.5782,-9.5699,0.063140,0.060607,0.005595,27.6863,16.1347,33.6915,-3.4297,0.3160,114,0,-1,-0.006419,-0.001942,-0.314482,-0.008112,0.041501,0.008698,-0.6670,-2.3446,3.4531
11616,11.0,-0.003980,-0.002199,-0.314155,-0.017974,0.005396,0.017980,-3.4694,-1.2451,-0.0001,0.00011697,-0.00002079,-0.00000441,-0.00438742,0.01147352,-0.01265350,-0.1783,0.6302,-9.5759,0.063067,0.021094,-0.006185,27.6863,16.1347,33.6915,-3.4297,0.3160,104,0,0,-0.006904,-0.002631,-0.315121,-0.009307,0.031622,0.004526,-0.5396,-2.2918,3.6637
11627,11.0,-0.004094,-0.002578,-0.314728,-0.014923,-0.001471,0.011372,-3.6525,-1.2694,-0.0010,0.00015490,-0.00001511,-0.00000466,-0.00426750,0.01130376,-0.00479480,-0.0556,0.7284,-9.5432,0.041561,0.010442,-0.000543,27.6863,16.1347,33.6915,-3.4297,0.3160,107,0,-1,-0.007041,-0.002535,-0.315066,-0.008414,0.033060,0.006936,-0.4632,-2.2791,3.6940
11638,11.0,-0.004148,-0.002550,-0.314534,-0.011363,0.000116,0.013808,-3.6162,-1.3117,0.0017,0.00015138,-0.00000654,-0.00000401,-0.00437985,0.01131105,-0.00540174,-0.0582,0.7042,-9.6369,0.030221,-0.000872,0.000348,27.6863,16.1347,33.6915,-3.4297,0.3130,101,0,0,-0.007108,-0.002915,-0.314886,-0.005667,0.030248,0.010758,-0.3768,-2.3014,3.7889
11649,11.0,-0.004077,-0.002595,-0.314386,-0.007348,-0.000677,0.013175,-3.6595,-1.3976,0.0024,0.00015563,0.00001051,-0.00000289,-0.00456525,0.01135112,-0.00540639,-0.1719,0.6360,-9.8520,-0.039017,-0.018494,0.016888,26.5089,15.7521,34.1743,-3.4297,0.3130,107,0,0,-0.007113,-0.002834,-0.313278,0.000019,0.034754,0.027579,-0.2281,-2.3330,3.8694
11660,11.0,-0.003804,-0.002693,-0.313101,-0.001517,-0.003284,0.022753,-3.7344,-1.5674,0.0106,0.00016196,0.00004451,-0.00000094,-0.00514194,0.01227390,-0.01692244,-0.2845,0.5414,-10.1905,-0.084250,-0.058212,0.019193,26.5089,15.7521,34.1743,-3.4297,0.3130,107,0,0,-0.006996,-0.002842,-0.312930,0.002827,0.034987,0.027942,-0.2209,-2.3599,3.8969
11671,11.0,-0.003522,-0.002789,-0.312888,0.003037,-0.005142,0.016089,-3.8039,-1.7104,0.0121,0.00016751,0.00007481,0.00000064,-0.00535688,0.01231367,-0.01692682,-0.3433,0.6071,-10.4110,-0.078276,-0.056978,0.010751,26.5089,15.7521,34.1743,-3.5037,0.3150,107,0,0,-0.006732,-0.002890,-0.312666,0.006827,0.034761,0.025010,-0.1765,-2.4362,3.9734
11682,11.0,-0.003924,-0.002818,-0.312645,-0.003994,-0.003243,0.010419,-3.8037,-1.5667,-0.0144,0.00016541,0.00002854,-0.00000216,-0.00511023,0.01237629,-0.01797360,-0.2878,0.8478,-10.4224,-0.010794,-0.007860,-0.007839,26.5089,15.7521,34.1743,-3.5037,0.3150,105,-1,0,-0.006665,-0.003006,-0.313712,0.007144,0.035838,-0.000737,-0.0728,-2.5294,3.8284
11693,11.0,-0.004067,-0.002798,-0.313467,-0.005090,0.000318,-0.006086,-3.7746,-1.5156,-0.0018,0.00016186,0.00001692,-0.00000290,-0.00485408,0.01174845,-0.00934428,-0.2317,0.9655,-10.3060,0.030891,0.027354,-0.007083,26.5089,15.7521,34.1743,-3.5037,0.3150,105,0,0,-0.006610,-0.003006,-0.313750,0.008040,0.039038,-0.006729,0.0104,-2.5638,3.9112
11704,11.0,-0.004294,-0.002742,-0.313466,-0.007175,0.003621,-0.007335,-3.7291,-1.4333,-0.0011,0.00015747,-0.00000328,-0.00000435,-0.00478083,0.01178337,-0.01011959,-0.1993,0.9152,-9.9827,0.053878,0.043497,0.014915,26.5089,15.7521,34.1743,-3.5037,0.3140,113,0,0,-0.006880,-0.002926,-0.313744,0.005881,0.047599,-0.012957,0.2275,-2.5602,4.1113
11715,11.0,-0.004512,-0.002630,-0.313549,-0.008217,0.006475,-0.007721,-3.6532,-1.3669,-0.0007,0.00015058,-0.00002111,-0.00000557,-0.00471971,0.01172526,-0.01011492,-0.1312,0.8215,-9.8231,0.093539,0.034039,0.027550,26.5089,15.7521,34.1743,-3.5037,0.3140,120,0,0,-0.007090,-0.002852,-0.313798,0.004324,0.051617,-0.013452,0.3493,-2.5474,4.2297
11726,11.0,-0.005245,-0.002490,-0.313388,-0.018179,0.007688,-0.004559,-3.5669,-1.1553,-0.0046,0.00014180,-0.00010038,-0.00001135,-0.00444215,0.01184990,-0.01235873,-0.2213,0.6473,-9.7729,0.106405,0.047483,0.028785,26.5089,15.7521,34.1743,-3.5037,0.3140,116,-1,0,-0.007988,-0.002607,-0.314071,-0.003935,0.055821,-0.012828,0.5541,-2.4643,4.4339
11737,11.0,-0.006007,-0.002351,-0.313442,-0.027306,0.008150,-0.005167,-3.4883,-0.9730,-0.0084,0.00013453,-0.00017128,-0.00001620,-0.00414860,0.01182410,-0.01236111,-0.2451,0.5879,-9.8574,0.101518,0.050116,0.031039,26.5089,15.7521,34.1743,-3.5037,0.3140,116,-1,0,-0.008704,-0.002486,-0.313837,-0.011145,0.056257,-0.008702,0.6356,-2.4028,4.5296
11747,10.0,-0.006337,-0.002339,-0.313411,-0.028252,0.005645,-0.005956,-3.5053,-0.9159,-0.0024,0.00014246,-0.00017870,-0.00001680,-0.00413969,0.01191467,-0.01321931,-0.1818,0.4638,-10.0035,-0.001950,0.072444,0.031821,26.1084,16.8477,34.1282,-3.4772,0.3140,117,0,0,-0.009001,-0.002375,-0.313931,-0.012165,0.056012,-0.009882,0.7661,-2.3891,4.6470
11758,11.0,-0.006904,-0.002470,-0.313406,-0.032104,0.001175,-0.003798,-3.6265,-0.7635,-0.0129,0.00016563,-0.00021341,-0.00001915,-0.00401659,0.01211390,-0.01379276,-0.1559,0.4465,-9.6849,-0.123372,0.139491,0.031497,26.1084,16.8477,34.1282,-3.4772,0.3140,119,0,0,-0.009755,-0.002426,-0.314052,-0.015460,0.052107,-0.010417,0.8303,-2.2865,4.8308
11770,12.0,-0.007473,-0.002630,-0.313353,-0.034262,-0.002725,0.001354,-3.7614,-0.6280,-0.0138,0.00018884,-0.00023966,-0.00002076,-0.00393026,0.01224895,-0.01447355,-0.0767,0.4918,-9.4580,-0.139072,0.131912,0.017776,26.1084,16.8477,34.1282,-3.4772,0.3130,116,0,0,-0.010282,-0.002581,-0.313305,-0.018401,0.048739,0.001043,0.7794,-2.1845,4.8904
11781,11.0,-0.007765,-0.002741,-0.313318,-0.032466,-0.004898,0.005092,-3.8356,-0.6041,0.0026,0.00019972,-0.00022786,-0.00002028,-0.00397556,0.01229110,-0.01448257,-0.0537,0.5370,-9.4709,-0.090680,0.066252,0.011287,26.1084,16.8477,34.1282,-3.4772,0.3130,120,0,0,-0.010763,-0.002751,-0.313201,-0.019929,0.046587,0.005586,0.7773,-2.1182,4.9940
11792,11.0,-0.007345,-0.002349,-0.312652,-0.021248,0.001141,0.013835,-3.7693,-0.7711,0.0592,0.00013249,-0.00011218,-0.00001407,-0.00449461,0.01237101,-0.01955499,-0.1137,0.6153,-9.6556,-0.049320,0.002560,0.004714,26.1084,16.8477,34.1282,-3.4772,0.3130,115,1,1,-0.010792,-0.002448,-0.312897,-0.011499,0.052167,0.013811,0.8839,-2.1187,4.9043
11803,11.0,-0.007296,-0.001515,-0.312494,-0.016583,0.012230,0.014991,-3.6458,-0.8343,0.0460,0.00000542,-0.00007007,-0.00001131,-0.00466189,0.01193291,-0.01948110,-0.0745,0.5801,-9.7062,-0.077382,-0.009531,0.014763,26.1084,16.8477,34.1282,-3.4772,0.3140,119,0,2,-0.010807,-0.002023,-0.312753,-0.008936,0.057313,0.015636,0.8961,-2.1303,4.9213
11814,11.0,-0.007287,-0.000615,-0.312207,-0.013217,0.021748,0.018801,-3.5187,-0.8745,0.0429,-0.00011648,-0.00004054,-0.00000951,-0.00477894,0.01155964,-0.02034557,-0.0813,0.4898,-9.5895,-0.044176,-0.003150,-0.001486,26.1084,16.8477,34.1282,-3.5142,0.3140,119,0,2,-0.010811,-0.001179,-0.313332,-0.005940,0.067421,0.009236,0.9838,-2.1723,5.0040
11825,11.0,-0.007120,-0.000588,-0.312752,-0.009026,0.018400,0.010998,-3.5641,-0.9615,0.0127,-0.00008261,0.00001003,-0.00000740,-0.00485750,0.01131487,-0.01411661,-0.1712,0.5687,-9.7099,-0.010086,-0.042354,-0.011565,26.1084,16.8477,34.1282,-3.5142,0.3140,116,0,0,-0.010761,-0.000248,-0.312999,-0.000762,0.073761,0.014930,1.0880,-2.2241,5.0847
11836,11.0,-0.006763,-0.000567,-0.312558,-0.003389,0.014494,0.010238,-3.6053,-1.1015,0.0270,-0.00005338,0.00008747,-0.00000430,-0.00510122,0.01144362,-0.01483649,-0.2443,0.4958,-9.9721,-0.013745,-0.084112,-0.007429,26.8987,17.5681,33.7145,-3.5142,0.3120,117,0,0,-0.010592,-0.000180,-0.312140,0.002477,0.072009,0.024232,1.0982,-2.2640,5.0916
11847,11.0,-0.006398,-0.000607,-0.312451,0.002020,0.011020,0.009048,-3.6748,-1.2245,0.0237,-0.00002004,0.00015746,-0.00000165,-0.00529456,0.01155420,-0.01485746,-0.2118,0.5632,-9.9167,-0.054915,-0.078069,-0.004774,26.8987,17.5681,33.7145,-3.5142,0.3120,117,0,0,-0.009876,-0.000044,-0.311677,0.011746,0.069108,0.022048,1.1727,-2.4316,5.1676
11858,11.0,-0.006088,-0.000667,-0.311691,0.006447,0.008397,0.017310,-3.7493,-1.3144,0.0142,0.00001271,0.00020845,0.00000033,-0.00549362,0.01192693,-0.02016105,-0.1677,0.6265,-9.7597,-0.065083,-0.062071,0.004040,26.8987,17.5681,33.7145,-3.5142,0.3120,115,0,0,-0.009511,-0.000028,-0.311331,0.016031,0.068284,0.023022,1.2188,-2.5182,5.2359
11869,11.0,-0.005854,-0.000279,-0.311490,0.009687,0.012526,0.019211,-3.7468,-1.3668,0.0175,-0.00004118,0.00023657,0.00000232,-0.00559105,0.01178292,-0.02014424,-0.1268,0.6529,-9.6352,-0.075516,-0.041460,0.008206,26.8987,17.5681,33.7145,-3.5142,0.3140,119,0,1,-0.009196,-0.000019,-0.311101,0.019394,0.067169,0.023772,1.1921,-2.5647,5.2504
11880,11.0,-0.005623,0.000151,-0.311155,0.012293,0.017169,0.023641,-3.7284,-1.4136,0.0149,-0.00009503,0.00025871,0.00000403,-0.00565971,0.01168542,-0.02100077,-0.1415,0.7034,-9.5197,-0.045674,-0.043462,0.011490,26.8987,17.5681,33.7145,-3.5142,0.3140,117,0,1,-0.008801,0.000861,-0.312448,0.023181,0.076631,0.010429,1.2506,-2.6278,5.1165
11891,11.0,-0.005814,0.000614,-0.311079,0.007667,0.021409,0.022832,-3.6999,-1.3957,-0.0090,-0.00014697,0.00019643,0.00000123,-0.00547907,0.01146398,-0.01948909,-0.2699,0.6966,-9.6713,-0.023831,-0.055099,0.013518,26.8987,17.5681,33.7145,-3.5512,0.3120,113,-1,1,-0.009012,0.001296,-0.312329,0.019467,0.081280,0.013503,1.3293,-2.6672,5.2098
11902,11.0,-0.006055,0.000612,-0.310744,0.002245,0.017957,0.022320,-3.7567,-1.3728,-0.0176,-0.00010023,0.00013339,-0.00000322,-0.00534279,0.01161193,-0.02024491,-0.3544,0.6257,-9.9543,-0.031143,-0.043453,0.004387,26.8987,17.5681,33.7145,-3.5512,0.3120,112,-1,0,-0.009427,0.001767,-0.311575,0.011826,0.083226,0.019725,1.3952,-2.7292,5.3513
11913,11.0,-0.006050,0.000575,-0.310510,0.000962,0.014402,0.020255,-3.8267,-1.3657,-0.0004,-0.00005312,0.00013127,-0.00000453,-0.00531692,0.01171590,-0.02025504,-0.3452,0.6219,-9.9945,-0.054968,0.008727,0.001048,26.8987,17.5681,33.7145,-3.5512,0.3120,112,0,0,-0.009694,0.001770,-0.311273,0.007543,0.080735,0.019610,1.3785,-2.7462,5.4101
11924,11.0,-0.006212,0.000502,-0.310723,-0.001719,0.011050,0.013564,-3.9095,-1.3094,-0.0073,-0.00000516,0.00009566,-0.00000778,-0.00520210,0.01162970,-0.01698552,-0.2824,0.6451,-9.9566,-0.078511,0.049354,-0.009924,26.8987,17.5681,33.7145,-3.5512,0.3120,112,0,0,-0.009696,0.001760,-0.311086,0.007077,0.079094,0.018143,1.4185,-2.7643,5.5032
11935,11.0,-0.006479,0.000407,-0.310575,-0.005084,0.008482,0.013289,-3.9978,-1.2274,-0.0089,0.00004189,0.00004283,-0.00001216,-0.00510246,0.01170991,-0.01699531,-0.2413,0.7085,-9.8248,-0.089523,0.073369,-0.003764,26.8987,17.5681,33.7145,-3.5512,0.3140,112,0,0,-0.009800,0.001729,-0.310916,0.005790,0.076796,0.016812,1.3797,-2.7452,5.5522
11946,11.0,-0.006757,0.000350,-0.310296,-0.007499,0.007160,0.017149,-4.0543,-1.1522,-0.0070,0.00007575,-0.00000625,-0.00001609,-0.00503038,0.01182438,-0.01793924,-0.1646,0.7429,-9.5802,-0.054541,0.068834,0.002220,27.6863,17.2154,34.1052,-3.5512,0.3140,117,0,0,-0.010315,0.002031,-0.312478,0.001115,0.079105,-0.000867,1.3675,-2.6644,5.6942
11957,11.0,-0.006867,0.000339,-0.311773,-0.007257,0.006578,-0.000483,-4.0751,-1.1321,-0.0015,0.00009684,-0.00001324,-0.00001698,-0.00478512,0.01113615,-0.00534143,-0.1388,0.7451,-9.6036,-0.015437,0.024114,0.004341,27.6863,17.2154,34.1052,-3.5512,0.3140,113,0,0,-0.010566,0.001985,-0.312345,-0.000268,0.078444,0.003176,1.4056,-2.6402,5.7986
11968,11.0,-0.006834,0.000382,-0.311680,-0.006325,0.005391,0.001651,-4.0640,-1.1555,0.0028,0.00010244,0.00001324,-0.00001536,-0.00484630,0.01118829,-0.00605435,-0.2478,0.6227,-9.7020,0.023438,-0.013089,0.012529,27.6863,17.2154,34.1052,-3.5512,0.3120,113,0,0,-0.010733,0.002054,-0.311829,0.001083,0.078077,0.012122,1.4703,-2.6387,5.9300
11979,11.0,-0.006751,0.000439,-0.311667,-0.004819,0.003721,0.000856,-4.0410,-1.1923,0.0057,0.00009925,0.00005015,-0.00001307,-0.00489467,0.01122097,-0.00605092,-0.2492,0.5496,-9.8720,0.033887,-0.025877,0.008694,27.6863,17.2154,34.1052,-3.5512,0.3120,112,0,0,-0.010689,0.002150,-0.311606,0.002378,0.077345,0.014454,1.4967,-2.6584,5.9751
11990,11.0,-0.006695,0.000493,-0.311320,-0.004123,0.002258,0.003157,-4.0176,-1.2186,0.0039,0.00009375,0.00007690,-0.00001133,-0.00498909,0.01136851,-0.00860330,-0.2793,0.5554,-9.9617,0.032910,-0.018403,-0.004858,27.6863,17.2154,34.1052,-3.5512,0.3120,116,0,0,-0.010615,0.002250,-0.311463,0.004171,0.077144,0.014308,1.6059,-2.6839,5.7463
12001,11.0,-0.006660,0.000494,-0.311292,-0.003197,0.000659,0.001827,-4.0233,-1.2348,0.0037,0.00009684,0.00009694,-0.00001029,-0.00501315,0.01139976,-0.00860116,-0.2259,0.5802,-9.9216,-0.006501,-0.008392,-0.008856,27.6863,17.2154,34.1052,-3.5512,0.3140,114,0,0,-0.010500,0.002438,-0.312514,0.006377,0.076165,-0.002470,1.7238,-2.7449,5.8773
12012,11.0,-0.006538,0.000447,-0.311150,-0.001162,-0.000178,0.003675,-4.0542,-1.2694,0.0056,0.00011015,0.00013632,-0.00000824,-0.00508717,0.01147246,-0.00950051,-0.2121,0.6821,-9.7583,-0.038335,-0.023364,-0.004863,27.6863,17.2154,34.1052,-3.5512,0.3140,112,0,0,-0.010448,0.002487,-0.312544,0.007495,0.075477,-0.003128,1.7266,-2.7563,5.9134
12023,11.0,-0.006295,0.000425,-0.312217,0.003365,0.000306,-0.008686,-4.0654,-1.3338,0.0051,0.00011616,0.00019926,-0.00000418,-0.00500640,0.01098040,-0.00149400,-0.0928,0.7702,-9.7243,-0.014201,-0.054436,0.002907,27.6863,17.2154,34.1052,-3.5512,0.3140,116,0,0,-0.010159,0.002542,-0.312461,0.011807,0.076291,0.000088,1.7659,-2.8254,6.0273
12034,11.0,-0.006036,0.000417,-0.312215,0.007137,0.001593,-0.006745,-4.0697,-1.3958,0.0026,0.00012156,0.00025543,-0.00000034,-0.00509518,0.01102962,-0.00217720,-0.1356,0.8414,-9.7027,-0.002359,-0.058197,0.014231,25.7079,16.5023,33.2548,-3.5512,0.3130,120,0,0,-0.009921,0.002596,-0.312369,0.015676,0.078334,0.002368,1.8362,-2.8907,6.1107
12045,11.0,-0.005781,0.000400,-0.312287,0.009592,0.002125,-0.006351,-4.0831,-1.4489,0.0002,0.00013284,0.00030150,0.00000287,-0.00515716,0.01102929,-0.00217614,-0.2182,0.7988,-9.7428,-0.012333,-0.053638,0.027906,25.7079,16.5023,33.2548,-3.5512,0.3130,116,0,0,-0.009670,0.002673,-0.312342,0.018772,0.080033,0.003826,1.8261,-2.9239,6.1331
12057,12.0,-0.006537,0.000388,-0.312157,-0.000886,0.002701,-0.003524,-4.0958,-1.3743,0.0026,0.00014473,0.00006557,-0.00001554,-0.00490202,0.01113659,-0.00361733,-0.2193,0.8003,-9.7416,-0.010127,-0.039287,0.020847,25.7079,16.5023,33.2548,-3.4931,0.3130,127,-2,0,-0.009199,0.002796,-0.312121,0.022842,0.082891,0.007627,1.8779,-3.0152,6.2716
12068,11.0,-0.006355,0.000349,-0.312202,0.001239,0.002940,-0.004597,-4.1241,-1.4184,-0.0022,0.00016622,0.00011916,-0.00001172,-0.00495874,0.01114499,-0.00361515,-0.2681,0.8256,-9.8748,-0.030185,-0.036471,0.020758,25.7079,16.5023,33.2548,-3.4931,0.3140,125,0,0,-0.009896,0.002750,-0.312042,0.013637,0.083350,0.008766,1.9410,-3.0267,6.4229
12080,12.0,-0.006218,0.000286,-0.312170,0.002405,0.002406,-0.005852,-4.1717,-1.4461,-0.0015,0.00019497,0.00015414,-0.00000956,-0.00500916,0.01122433,-0.00433936,-0.2835,0.7918,-9.9866,-0.051832,-0.021803,0.022894,25.7079,16.5023,33.2548,-3.4931,0.3140,124,0,0,-0.009553,0.002796,-0.312822,0.016864,0.084973,-0.000904,1.9581,-3.0761,6.2829
12091,11.0,-0.006122,0.000268,-0.312701,0.002758,0.002361,-0.013717,-4.1866,-1.4650,-0.0007,0.00020941,0.00017495,-0.00000825,-0.00495266,0.01100560,-0.00123244,-0.3071,0.7905,-10.0138,-0.014638,-0.017823,0.009659,25.7079,16.5023,33.2548,-3.4931,0.3140,129,0,0,-0.009417,0.002814,-0.312843,0.017524,0.085046,-0.002260,1.9183,-3.0936,6.3397
12102,11.0,-0.006086,0.000263,-0.312790,0.003173,0.002948,-0.015367,-4.1927,-1.4698,0.0002,0.00022008,0.00017604,-0.00000843,-0.00496569,0.01105406,-0.00177396,-0.2280,0.8383,-10.0095,-0.003149,-0.007086,0.003794,25.7079,16.5023,33.2548,-3.4931,0.3120,127,0,0,-0.009310,0.002853,-0.312741,0.017765,0.086254,-0.002277,1.9782,-3.1300,6.4443
12113,11.0,-0.006171,0.000256,-0.312962,0.002178,0.003370,-0.015990,-4.2013,-1.4439,0.0034,0.00023391,0.00013971,-0.00001187,-0.00494296,0.01105084,-0.00177619,-0.2129,0.8202,-9.8335,-0.005376,0.020105,0.004231,25.7079,16.5023,33.2548,-3.4772,0.3120,127,0,0,-0.009256,0.002958,-0.311782,0.017647,0.088679,0.005320,2.0334,-3.1525,6.5994
12125,12.0,-0.006186,0.000269,-0.311936,0.001974,0.004305,-0.001720,-4.1994,-1.4371,0.0017,0.00024250,0.00012696,-0.00001322,-0.00512223,0.01168982,-0.00993837,-0.2251,0.8428,-9.7676,0.007605,0.003091,0.007260,25.7079,16.5023,33.2548,-3.4772,0.3120,130,0,0,-0.009321,0.003004,-0.311734,0.016508,0.089122,0.005392,2.0136,-3.1305,6.6548
12136,11.0,-0.006112,0.000307,-0.311955,0.002913,0.004982,-0.001645,-4.1835,-1.4548,-0.0021,0.00024716,0.00014236,-0.00001190,-0.00513746,0.01168073,-0.00993796,-0.2217,0.8058,-9.7788,0.028219,-0.020215,0.005014,25.7079,16.5023,33.2548,-3.4772,0.3140,130,0,0,-0.009352,0.003047,-0.311678,0.015832,0.090540,0.006314,2.0788,-3.1438,6.7678
12147,11.0,-0.006004,0.000327,-0.311881,0.003877,0.005474,-0.000889,-4.1794,-1.4775,-0.0026,0.00025952,0.00016561,-0.00001011,-0.00516948,0.01174233,-0.01057722,-0.2496,0.8185,-9.8181,0.013399,-0.024798,0.012808,25.7105,15.0541,34.1052,-3.4772,0.3140,120,0,0,-0.009206,0.003242,-0.312614,0.017004,0.092857,-0.002794,2.1555,-3.1863,6.9206
12158,11.0,-0.005942,0.000321,-0.312534,0.003953,0.004923,-0.008754,-4.1930,-1.4861,0.0000,0.00028282,0.00017211,-0.00001016,-0.00507049,0.01140117,-0.00634249,-0.2750,0.7531,-9.8221,-0.009003,-0.011231,0.014594,25.7105,15.0541,34.1052,-3.4772,0.3140,117,0,0,-0.009017,0.003400,-0.312563,0.017952,0.094284,-0.000719,2.2092,-3.2332,7.0826
12169,11.0,-0.005845,0.000275,-0.312562,0.004683,0.004297,-0.008454,-4.2284,-1.4998,-0.0009,0.00031590,0.00018895,-0.00000954,-0.00509383,0.01146519,-0.00682566,-0.2518,0.7886,-9.8341,-0.039322,-0.014745,0.016604,25.7105,15.0541,34.1052,-3.4772,0.3110,118,0,0,-0.008938,0.003454,-0.311200,0.017934,0.093839,0.014806,2.1899,-3.2412,7.1387
12180,11.0,-0.005785,0.000190,-0.312654,0.004768,0.003636,-0.008234,-4.2852,-1.5014,0.0013,0.00036118,0.00019208,-0.00001049,-0.00509516,0.01148447,-0.00682353,-0.2637,0.8230,-9.7600,-0.067791,-0.002296,0.018930,25.7105,15.0541,34.1052,-3.4772,0.3110,113,0,0,-0.008841,0.003469,-0.310976,0.018502,0.094250,0.016127,2.2264,-3.2726,7.2531
12191,11.0,-0.005699,0.000121,-0.311213,0.004822,0.002687,0.010348,-4.3302,-1.5096,0.0001,0.00039286,0.00020435,-0.00001032,-0.00535123,0.01236355,-0.01674952,-0.2942,0.7722,-9.7231,-0.056752,-0.009191,0.023530,25.7105,15.0541,34.1052,-3.3610,0.3110,117,0,0,-0.008682,0.003448,-0.310580,0.018597,0.093764,0.019251,2.2056,-3.2670,7.0166
12203,12.0,-0.005506,0.000117,-0.311087,0.006334,0.002113,0.010604,-4.3398,-1.5483,-0.0046,0.00040466,0.00024981,-0.00000663,-0.00538106,0.01237215,-0.01674548,-0.2725,0.7385,-9.7748,-0.008158,-0.038731,0.017764,25.7105,15.0541,34.1052,-3.3610,0.3140,116,0,0,-0.008567,0.003469,-0.312113,0.018826,0.092845,0.001444,2.1481,-3.2749,7.0946
12214,11.0,-0.005326,0.000161,-0.310923,0.007655,0.002278,0.010673,-4.3178,-1.5850,-0.0045,0.00039697,0.00028705,-0.00000312,-0.00541430,0.01239587,-0.01707434,-0.2708,0.7490,-9.8443,0.032215,-0.042439,0.007207,25.7105,15.0541,34.1052,-3.3610,0.3140,116,0,0,-0.008391,0.003531,-0.312095,0.020016,0.093308,0.002421,2.2027,-3.3224,7.2058
12225,11.0,-0.005292,0.000183,-0.310912,0.007082,0.001955,0.009676,-4.3099,-1.5851,0.0018,0.00039788,0.00026960,-0.00000467,-0.00538432,0.01233955,-0.01639381,-0.2732,0.7219,-9.7744,0.013404,-0.007233,-0.000250,25.7105,15.0541,34.1052,-3.3610,0.3120,114,0,0,-0.008092,0.003745,-0.311992,0.021479,0.094513,0.003568,2.2780,-3.3886,7.3699
12236,11.0,-0.005263,0.000213,-0.310759,0.006582,0.000939,0.011690,-4.2974,-1.5856,0.0010,0.00039241,0.00025267,-0.00000591,-0.00537955,0.01235723,-0.01664294,-0.2658,0.6300,-9.6623,0.017702,-0.007178,-0.005209,27.2911,16.4949,33.6915,-3.3610,0.3120,109,0,0,-0.008056,0.003830,-0.311480,0.020762,0.094251,0.009844,2.2732,-3.3866,7.4294
12247,11.0,-0.005591,0.000223,-0.310625,0.001686,-0.000057,0.012577,-4.2950,-1.5711,0.0084,0.00038982,0.00011250,-0.00001713,-0.00527894,0.01237317,-0.01665314,-0.2905,0.6452,-9.7218,0.003068,-0.033155,-0.004925,27.2911,16.4949,33.6915,-3.3610,0.3120,108,-1,0,-0.008396,0.003946,-0.311250,0.015096,0.092884,0.013959,2.3404,-3.3954,7.6149
12258,11.0,-0.005390,0.000191,-0.311284,0.004420,-0.000981,0.003969,-4.3151,-1.6126,-0.0026,0.00040115,0.00017616,-0.00001245,-0.00517950,0.01196012,-0.01164097,-0.2158,0.6879,-9.7316,-0.026291,-0.040726,0.002930,27.2911,16.4949,33.6915,-3.3610,0.3130,109,0,0,-0.008676,0.003964,-0.311043,0.011509,0.092459,0.016135,2.3999,-3.4254,7.7363
12270,12.0,-0.005212,0.000125,-0.311235,0.005928,-0.001053,0.004243,-4.3533,-1.6439,-0.0015,0.00042253,0.00022118,-0.00000946,-0.00521042,0.01196694,-0.01163627,-0.2773,0.7991,-9.7634,-0.047509,-0.030040,0.005933,27.2911,16.4949,33.6915,-3.4191,0.3130,112,0,0,-0.008481,0.004025,-0.311652,0.014173,0.092091,0.008916,2.3663,-3.4473,7.7837
12282,12.0,-0.005058,0.000043,-0.311120,0.006774,-0.001183,0.003482,-4.4009,-1.6655,-0.0004,0.00044965,0.00025184,-0.00000780,-0.00524305,0.01202128,-0.01210167,-0.3019,0.8281,-9.9215,-0.058894,-0.022068,0.016295,27.2911,16.4949,33.6915,-3.4191,0.3130,108,0,0,-0.008155,0.004067,-0.311394,0.017241,0.093459,0.011584,2.3619,-3.4783,7.5500
12294,12.0,-0.004888,-0.000034,-0.311000,0.007649,-0.001621,0.002410,-4.4456,-1.6899,-0.0007,0.00047401,0.00028531,-0.00000581,-0.00527490,0.01207273,-0.01264938,-0.3101,0.8047,-9.9630,-0.055838,-0.025531,0.019643,27.2911,16.4949,33.6915,-3.4191,0.3120,105,0,0,-0.008006,0.004066,-0.311282,0.018184,0.094446,0.011212,2.3825,-3.5157,7.6642
12305,11.0,-0.004736,-0.000052,-0.310927,0.007635,-0.001223,0.001381,-4.4530,-1.7136,-0.0022,0.00047464,0.00031274,-0.00000351,-0.00529902,0.01210064,-0.01299432,-0.3779,0.8219,-9.9372,-0.010433,-0.028963,0.017565,27.2911,16.4949,33.6915,-3.4191,0.3120,114,0,0,-0.007698,0.004105,-0.311013,0.019465,0.095598,0.010556,2.3522,-3.5699,7.8541
12316,11.0,-0.004595,-0.000008,-0.310923,0.007510,-0.000738,-0.000707,-4.4275,-1.7393,-0.0036,0.00045269,0.00033646,-0.00000076,-0.00529848,0.01208904,-0.01299429,-0.3805,0.7708,-9.9772,0.033522,-0.032811,0.009091,27.2911,16.4949,33.6915,-3.4191,0.3120,113,0,0,-0.007561,0.004176,-0.310845,0.019333,0.096013,0.010710,2.3200,-3.5896,7.9296
12327,11.0,-0.004507,0.000063,-0.311447,0.007229,0.000196,-0.007864,-4.3865,-1.7557,-0.0034,0.00042220,0.00033955,0.00000069,-0.00520093,0.01183331,-0.00995383,-0.3406,0.7784,-9.9014,0.055413,-0.025103,0.009410,27.2911,16.4949,33.6915,-3.4191,0.3130,112,0,0,-0.007438,0.004277,-0.310744,0.019050,0.097230,0.009907,2.3897,-3.6302,8.0480
12338,11.0,-0.004476,0.000123,-0.311535,0.006766,0.000741,-0.008147,-4.3534,-1.7589,-0.0009,0.00039933,0.00032044,-0.00000002,-0.00519356,0.01182292,-0.00995712,-0.2970,0.7513,-9.8136,0.045414,-0.011679,0.006536,27.6808,16.5098,34.4727,-3.3821,0.3130,115,0,0,-0.007276,0.004537,-0.311474,0.018511,0.099565,0.000597,2.4717,-3.6784,8.2439
12349,11.0,-0.004970,0.000147,-0.311569,0.000408,0.000453,-0.007785,-4.3425,-1.7120,0.0142,0.00039210,0.00009599,-0.00001825,-0.00511422,0.01184891,-0.01032800,-0.2839,0.7135,-9.8210,0.015753,-0.000267,0.007810,27.6808,16.5098,34.4727,-3.3821,0.3130,115,-1,0,-0.007246,0.004660,-0.311471,0.018032,0.099908,0.001221,2.4704,-3.6775,8.3162
12360,11.0,-0.005004,0.000136,-0.311278,-0.000467,-0.000746,-0.004336,-4.3511,-1.7026,0.0017,0.00039508,0.00008193,-0.00001961,-0.00518090,0.01204471,-0.01258778,-0.3425,0.6624,-9.8859,-0.012235,0.009767,0.006083,27.6808,16.5098,34.4727,-3.3821,0.3120,117,0,0,-0.007693,0.004757,-0.311368,0.012099,0.099022,0.002680,2.5121,-3.6724,8.5443
12371,11.0,-0.005587,0.000078,-0.311286,-0.007351,-0.002143,-0.004494,-4.3850,-1.6382,0.0111,0.00041341,-0.00015022,-0.00003841,-0.00510251,0.01207365,-0.01287232,-0.3178,0.6819,-9.8579,-0.047321,0.027540,0.008020,27.6808,16.5098,34.4727,-3.3821,0.3120,122,-1,0,-0.008161,0.004723,-0.311156,0.006327,0.097807,0.004647,2.5495,-3.6669,8.6930
12382,11.0,-0.005738,0.000033,-0.311339,-0.008060,-0.002673,-0.005153,-4.4082,-1.6098,0.0019,0.00042147,-0.00017868,-0.00004094,-0.00509169,0.01207894,-0.01287399,-0.2781,0.7395,-9.8522,-0.033930,0.035946,0.002407,27.6808,16.5098,34.4727,-3.3821,0.3120,125,0,0,-0.008671,0.004656,-0.311065,0.000767,0.095620,0.005345,2.4941,-3.6292,8.7961
12393,11.0,-0.005819,0.000501,-0.311119,-0.007958,0.003136,-0.001813,-4.3767,-1.5988,-0.0190,0.00021648,-0.00017659,-0.00003304,-0.00515202,0.01212528,-0.01449419,-0.2783,0.7703,-9.7791,-0.012396,0.017596,0.005663,27.6808,16.5098,34.4727,-3.3821,0.3120,123,0,1,-0.008909,0.004655,-0.310882,0.000857,0.095132,0.007220,2.4946,-3.5661,8.5544
12404,11.0,-0.005865,0.000512,-0.311138,-0.007170,0.002514,-0.001550,-4.3758,-1.5974,-0.0000,0.00022521,-0.00016001,-0.00003205,-0.00516251,0.01213245,-0.01449193,-0.2488,0.7247,-9.7717,0.004271,0.006923,0.002356,27.6808,16.5098,34.4727,-3.3821,0.3120,122,0,0,-0.009051,0.005123,-0.310975,0.000511,0.100947,0.006530,2.5544,-3.5740,8.6595
12415,11.0,-0.005888,0.000538,-0.311055,-0.006239,0.001797,-0.000112,-4.3664,-1.6011,-0.0008,0.00022452,-0.00013737,-0.00003028,-0.00519355,0.01217651,-0.01507366,-0.2500,0.6918,-9.7750,0.014846,0.000693,-0.001669,27.6808,16.5098,34.4727,-3.4931,0.3120,122,0,0,-0.009117,0.005247,-0.310729,0.002388,0.100562,0.009872,2.5729,-3.5804,8.8336
12426,11.0,-0.005863,0.000589,-0.309925,-0.005502,0.001404,0.013025,-4.3413,-1.6161,-0.0016,0.00020997,-0.00009694,-0.00002681,-0.00544664,0.01267200,-0.02157342,-0.3126,0.6869,-9.8092,0.035296,-0.012104,-0.011817,27.6808,16.5098,34.4727,-3.4931,0.3100,123,0,0,-0.009125,0.005335,-0.310633,0.003426,0.100007,0.010914,2.5548,-3.5748,8.8909
12437,11.0,-0.005775,0.000629,-0.309707,-0.003631,0.000936,0.013859,-4.3220,-1.6439,-0.0020,0.00019771,-0.00003392,-0.00002171,-0.00548771,0.01269997,-0.02201192,-0.2664,0.6831,-9.8120,0.027068,-0.025138,-0.014574,28.0787,16.5023,34.4958,-3.4931,0.3100,125,0,0,-0.009103,0.005439,-0.309585,0.004439,0.100536,0.022013,2.6278,-3.6047,8.9862
12448,11.0,-0.005664,0.000639,-0.309557,-0.001778,0.000635,0.013352,-4.3182,-1.6728,-0.0012,0.00019712,0.00003098,-0.00001686,-0.00551381,0.01270138,-0.02200741,-0.2769,0.7267,-9.8485,0.005627,-0.026621,-0.013247,28.0787,16.5023,34.4958,-3.4931,0.3100,118,0,0,-0.008948,0.005649,-0.309138,0.007965,0.101123,0.023212,2.6750,-3.6500,9.1285
12459,11.0,-0.005562,0.000617,-0.309663,0.000003,-0.000165,0.010532,-4.3320,-1.6959,-0.0001,0.00020798,0.00008328,-0.00001337,-0.00548233,0.01260053,-0.02057155,-0.2547,0.7043,-9.7911,-0.019062,-0.020801,-0.015878,28.0787,16.5023,34.4958,-3.4931,0.3110,116,0,0,-0.008845,0.005735,-0.308787,0.009599,0.100955,0.025047,2.6438,-3.6585,9.1740
12470,11.0,-0.005454,0.000601,-0.309546,0.001604,0.000068,0.010805,-4.3399,-1.7190,-0.0009,0.00021552,0.00012978,-0.00001005,-0.00550501,0.01259663,-0.02056837,-0.2603,0.7896,-9.7716,-0.010703,-0.022819,-0.015551,28.0787,16.5023,34.4958,-3.4931,0.3110,119,0,0,-0.008740,0.005793,-0.309420,0.011290,0.101126,0.016256,2.6748,-3.6920,9.2749
12481,11.0,-0.005269,0.000598,-0.309337,0.003584,0.000815,0.010575,-4.3401,-1.7581,-0.0024,0.00021936,0.00020434,-0.00000435,-0.00555080,0.01263826,-0.02112353,-0.2983,0.8405,-9.9196,0.000529,-0.040810,-0.015275,28.0787,16.5023,34.4958,-3.4931,0.3110,114,0,0,-0.008490,0.005930,-0.308992,0.014284,0.102650,0.019091,2.6960,-3.7005,8.9591
12492,11.0,-0.005623,0.000098,-0.309084,-0.000836,-0.003510,0.010031,-4.3863,-1.7447,0.0242,0.00045506,0.00002707,-0.00002676,-0.00552598,0.01275395,-0.02195418,-0.3019,0.9200,-9.9954,-0.010078,-0.026091,-0.001698,28.0787,16.5023,34.4958,-3.4350,0.3100,112,-1,-1,-0.008682,0.005510,-0.308813,0.011646,0.097630,0.018648,2.6305,-3.7014,9.0331
12503,11.0,-0.005634,0.000059,-0.308924,-0.000683,-0.001847,0.009212,-4.4005,-1.7412,0.0004,0.00045953,0.00002599,-0.00002701,-0.00553683,0.01277994,-0.02228526,-0.2919,0.9341,-9.9245,-0.020762,0.004984,0.002591,28.0787,16.5023,34.4958,-3.4350,0.3100,112,0,0,-0.008841,0.005104,-0.308666,0.009591,0.096259,0.014880,2.5878,-3.7242,9.2179
12514,11.0,-0.006222,0.000022,-0.308820,-0.007246,-0.000201,0.009637,-4.4165,-1.6807,0.0260,0.00047307,-0.00024055,-0.00005156,-0.00545928,0.01276595,-0.02230309,-0.2915,0.9408,-9.7470,-0.020837,0.026413,0.005989,28.0787,16.5023,34.4958,-3.4350,0.3100,110,-1,0,-0.008861,0.005116,-0.308442,0.009308,0.098586,0.015987,2.6137,-3.7343,9.3336
12525,11.0,-0.006326,0.000003,-0.309340,-0.007554,0.001201,0.002904,-4.4246,-1.6636,0.0020,0.00048512,-0.00025224,-0.00005305,-0.00534162,0.01249755,-0.01886551,-0.2941,0.9172,-9.7305,-0.008614,0.022388,0.026003,28.0787,16.5023,34.4958,-3.4350,0.3110,112,0,0,-0.009379,0.005057,-0.308285,0.003186,0.098831,0.017242,2.5446,-3.6887,9.4309
12537,12.0,-0.006381,0.000020,-0.309308,-0.007215,0.001291,0.002530,-4.4182,-1.6595,-0.0017,0.00048471,-0.00023545,-0.00005149,-0.00534485,0.01249430,-0.01886478,-0.2970,0.7776,-9.8259,0.010690,0.007034,0.033577,27.2911,17.2154,33.2778,-3.4350,0.3110,114,0,0,-0.009537,0.005121,-0.309142,0.002528,0.101255,0.008149,2.5157,-3.6706,9.6467
12548,11.0,-0.006453,0.000048,-0.309206,-0.007289,0.000575,0.002838,-4.4062,-1.6516,-0.0010,0.00047528,-0.00023113,-0.00005079,-0.00536030,0.01252847,-0.01929461,-0.3073,0.6868,-9.8580,0.017872,0.011373,0.025080,27.2911,17.2154,33.2778,-3.4350,0.3110,106,0,0,-0.009577,0.005183,-0.309059,0.002863,0.102022,0.008888,2.5584,-3.6848,9.7784
12559,11.0,-0.006595,0.000090,-0.307958,-0.007967,-0.000505,0.016904,-4.3853,-1.6299,0.0009,0.00044980,-0.00025946,-0.00005242,-0.00556696,0.01311444,-0.02580751,-0.2854,0.6216,-9.8166,0.026916,0.025751,0.013592,27.2911,17.2154,33.2778,-3.4350,0.3080,105,0,0,-0.009723,0.005334,-0.308780,0.002816,0.100999,0.010734,2.5800,-3.6759,9.9864
12570,11.0,-0.006702,0.000123,-0.307726,-0.008001,-0.001294,0.018109,-4.3683,-1.6168,-0.0008,0.00042785,-0.00026928,-0.00005249,-0.00557167,0.01312810,-0.02604568,-0.2645,0.6392,-9.7505,0.021938,0.018349,-0.002460,27.2911,17.2154,33.2778,-3.3821,0.3080,107,0,0,-0.009855,0.005410,-0.307636,0.002428,0.099874,0.022672,2.5681,-3.6466,10.0562
12581,11.0,-0.006707,0.000122,-0.307527,-0.007027,-0.002626,0.018122,-4.3701,-1.6227,-0.0014,0.00041612,-0.00022963,-0.00004914,-0.00558373,0.01315151,-0.02604214,-0.2796,0.6170,-9.8134,-0.005445,-0.000268,0.001271,27.2911,17.2154,33.2778,-3.3821,0.3080,106,0,0,-0.009956,0.005479,-0.307356,0.002476,0.099634,0.024651,2.6190,-3.6495,10.1667
12592,11.0,-0.006646,0.000111,-0.307105,-0.005110,-0.003126,0.020078,-4.3736,-1.6422,-0.0021,0.00040487,-0.00016339,-0.00004375,-0.00564358,0.01324916,-0.02723248,-0.2528,0.6962,-9.8713,-0.008169,-0.014805,-0.011267,27.2911,17.2154,33.2778,-3.3821,0.3080,105,0,0,-0.009940,0.005595,-0.306782,0.004924,0.098353,0.026688,2.6373,-3.6309,9.9293
12603,11.0,-0.006604,0.000085,-0.306889,-0.003594,-0.002452,0.019083,-4.3829,-1.6552,-0.0019,0.00040301,-0.00011722,-0.00004002,-0.00566092,0.01323883,-0.02723084,-0.2504,0.8240,-9.8916,-0.015117,-0.008782,-0.015059,27.2911,17.2154,33.2778,-3.3821,0.3110,112,0,0,-0.009878,0.005658,-0.308679,0.006440,0.098044,0.003631,2.5800,-3.6259,9.9855
12613,10.0,-0.006631,0.000039,-0.306643,-0.003148,-0.001271,0.020111,-4.4026,-1.6500,0.0004,0.00041756,-0.00011373,-0.00004018,-0.00567145,0.01326674,-0.02752063,-0.2513,0.9113,-9.7561,-0.030304,0.009821,-0.000959,27.2911,17.2154,33.2778,-3.3821,0.3110,112,0,0,-0.009829,0.005700,-0.308645,0.007586,0.099428,0.003689,2.6073,-3.6481,10.0793
12624,11.0,-0.006691,0.000026,-0.308328,-0.003045,0.000752,-0.000270,-4.4051,-1.6402,0.0008,0.00042382,-0.00012912,-0.00004159,-0.00534756,0.01243509,-0.01749370,-0.2454,0.9456,-9.6021,-0.001114,0.012107,0.008564,27.6890,16.8477,32.8869,-3.3610,0.3110,111,0,0,-0.009860,0.005740,-0.308494,0.007424,0.102096,0.007438,2.5567,-3.6377,10.2445
12636,12.0,-0.006186,0.000050,-0.308285,0.003207,0.002955,0.001595,-4.3891,-1.6847,-0.0245,0.00042334,0.00013875,-0.00001704,-0.00544670,0.01245127,-0.01768050,-0.2757,0.9379,-9.6633,0.023795,-0.010205,0.016183,27.6890,16.8477,32.8869,-3.3610,0.3080,105,1,0,-0.009894,0.005792,-0.307594,0.007146,0.103277,0.019310,2.5022,-3.6167,10.3025
12647,11.0,-0.006091,0.000084,-0.308269,0.003658,0.003732,0.001431,-4.3736,-1.7028,-0.0028,0.00042556,0.00016955,-0.00001426,-0.00545389,0.01244114,-0.01767977,-0.3170,0.8377,-9.8031,0.026463,-0.024004,0.028343,27.6890,16.8477,32.8869,-3.3610,0.3080,109,0,0,-0.009395,0.006054,-0.307168,0.012147,0.106975,0.023539,2.5075,-3.6515,10.4642
12658,11.0,-0.006039,0.000105,-0.309164,0.003280,0.003737,-0.009308,-4.3680,-1.7102,-0.0001,0.00043791,0.00017596,-0.00001407,-0.00531167,0.01204276,-0.01301051,-0.3471,0.7841,-9.8025,0.013434,-0.011987,0.028553,27.6890,16.8477,32.8869,-3.3610,0.3110,122,0,0,-0.009310,0.006157,-0.306871,0.012351,0.107971,0.025164,2.5514,-3.6815,10.5868
12669,11.0,-0.006032,0.000134,-0.309268,0.002780,0.003009,-0.009706,-4.3585,-1.7091,0.0015,0.00044166,0.00016203,-0.00001549,-0.00530364,0.01205063,-0.01301059,-0.3156,0.7040,-9.8301,0.017132,-0.002976,0.024809,27.6890,16.8477,32.8869,-3.3610,0.3110,122,0,0,-0.009257,0.006251,-0.308678,0.011985,0.107333,0.003375,2.4949,-3.6786,10.6783
12680,11.0,-0.006051,0.000166,-0.309330,0.001930,0.002276,-0.009710,-4.3464,-1.7036,0.0015,0.00043985,0.00013743,-0.00001754,-0.00530437,0.01207255,-0.01326480,-0.3267,0.6914,-9.8479,0.019507,0.002525,0.013059,27.6890,16.8477,32.8869,-3.3610,0.3110,120,0,0,-0.009250,0.006425,-0.308562,0.010970,0.105937,0.004956,2.5218,-3.6512,10.4432
12691,11.0,-0.006068,0.000198,-0.308097,0.001242,0.001711,0.004434,-4.3322,-1.7000,0.0009,0.00043124,0.00012020,-0.00001876,-0.00551578,0.01267815,-0.02007052,-0.3261,0.7033,-9.9363,0.020267,0.001575,0.000069,27.6890,16.8477,32.8869,-3.3610,0.3080,127,0,0,-0.009278,0.006514,-0.308515,0.010202,0.105510,0.005109,2.5659,-3.6606,10.5601
12702,11.0,-0.006057,0.000168,-0.308021,0.001361,0.001345,0.003300,-4.3517,-1.6987,0.0015,0.00045728,0.00011829,-0.00001982,-0.00552185,0.01270110,-0.02025991,-0.2859,0.7830,-9.9395,-0.024850,0.001415,0.002860,27.6890,16.8477,32.8869,-3.3610,0.3080,130,0,0,-0.009287,0.006653,-0.307472,0.009500,0.104831,0.013693,2.5592,-3.6606,10.7382
12713,11.0,-0.006080,0.000108,-0.307983,0.001607,0.000930,0.003549,-4.3868,-1.6879,0.0025,0.00049757,0.00009614,-0.00002288,-0.00552485,0.01270461,-0.02025954,-0.2300,0.7964,-9.7740,-0.046292,0.011526,0.013321,27.6890,16.8477,32.8869,-3.3081,0.3080,120,0,0,-0.009269,0.006682,-0.307315,0.009646,0.104289,0.013776,2.4848,-3.6440,10.8064
12724,11.0,-0.006081,0.000102,-0.308477,0.002292,0.000889,-0.001448,-4.3920,-1.6855,0.0010,0.00050725,0.00008347,-0.00002423,-0.00542921,0.01247559,-0.01756783,-0.2042,0.7679,-9.6805,-0.005011,0.000467,0.013365,28.8717,17.2154,33.6915,-3.3081,0.3100,126,0,0,-0.009275,0.006687,-0.307174,0.009835,0.104190,0.015189,2.4835,-3.6491,10.9259
12735,11.0,-0.006050,0.000146,-0.308493,0.002874,0.000594,-0.001321,-4.3702,-1.6925,-0.0009,0.00048672,0.00008424,-0.00002351,-0.00543754,0.01247893,-0.01756774,-0.2433,0.6968,-9.7896,0.030834,-0.011211,0.002699,28.8717,17.2154,33.6915,-3.3081,0.3100,126,0,0,-0.009268,0.006807,-0.308202,0.010424,0.103510,0.005552,2.4477,-3.6395,11.1114
12746,11.0,-0.006057,0.000162,-0.308479,0.002875,0.000406,-0.001044,-4.3630,-1.6894,0.0006,0.00048072,0.00006285,-0.00002505,-0.00543655,0.01248943,-0.01771213,-0.2535,0.7316,-9.8037,0.010907,0.000202,0.005216,28.8717,17.2154,33.6915,-3.3081,0.3100,120,0,0,-0.009683,0.006824,-0.308149,0.005739,0.101831,0.006469,2.4173,-3.6100,11.1915
12757,11.0,-0.006085,0.000158,-0.307118,0.002677,-0.000011,0.015175,-4.3664,-1.6799,0.0010,0.00048304,0.00003036,-0.00002764,-0.00565376,0.01305724,-0.02445534,-0.2464,0.7259,-9.7793,-0.004941,0.007527,0.003390,28.8717,17.2154,33.6915,-3.3081,0.3070,116,0,0,-0.009692,0.006895,-0.308048,0.006165,0.102041,0.007739,2.4510,-3.6220,11.2960
12768,11.0,-0.006026,0.000157,-0.306931,0.003260,-0.000486,0.015096,-4.3685,-1.6895,-0.0004,0.00048237,0.00004565,-0.00002642,-0.00566113,0.01306584,-0.02456189,-0.2707,0.7176,-9.8361,-0.002865,-0.012433,0.005079,28.8717,17.2154,33.6915,-3.3081,0.3070,116,0,0,-0.009720,0.006998,-0.306660,0.006921,0.101137,0.021678,2.4258,-3.6110,11.4569
12779,11.0,-0.005913,0.000188,-0.306773,0.004849,-0.000409,0.013725,-4.3510,-1.7123,-0.0018,0.00046139,0.00008408,-0.00002278,-0.00568035,0.01306203,-0.02456073,-0.2292,0.7367,-9.9306,0.024091,-0.028667,0.001580,28.8717,17.2154,33.6915,-3.3081,0.3070,112,0,0,-0.009662,0.007073,-0.306419,0.007809,0.100590,0.022421,2.3774,-3.6054,11.5141
12790,11.0,-0.005799,0.000238,-0.307332,0.006098,-0.000025,0.003397,-4.3229,-1.7354,-0.0012,0.00043073,0.00011357,-0.00001970,-0.00558379,0.01278532,-0.02117573,-0.2501,0.7491,-10.0032,0.039034,-0.030258,-0.002134,28.8717,17.2154,33.6915,-3.3980,0.3090,118,0,0,-0.009569,0.007170,-0.306198,0.009510,0.101449,0.022366,2.4394,-3.6014,11.1364
12801,11.0,-0.005742,0.000273,-0.307308,0.006419,0.000976,0.001016,-4.3027,-1.7442,-0.0004,0.00041419,0.00010653,-0.00001973,-0.00558659,0.01277106,-0.02117723,-0.2673,0.8266,-10.0114,0.029501,-0.015791,0.006922,28.8717,17.2154,33.6915,-3.3980,0.3090,111,0,0,-0.009395,0.007402,-0.307150,0.011665,0.103059,0.006635,2.4480,-3.6275,11.2872
12812,11.0,-0.005737,0.000290,-0.307245,0.005989,0.001707,0.000077,-4.2941,-1.7399,0.0012,0.00041321,0.00006989,-0.00002263,-0.00559003,0.01279448,-0.02148036,-0.2786,0.8242,-9.9465,0.014294,-0.001771,0.016266,28.8717,17.2154,33.6915,-3.3980,0.3090,113,0,0,-0.009355,0.007503,-0.307096,0.011789,0.103518,0.005467,2.4069,-3.6179,11.3456
12823,11.0,-0.005758,0.000303,-0.307113,0.005056,0.002122,0.000242,-4.2888,-1.7301,0.0017,0.00041845,0.00002237,-0.00002659,-0.00560204,0.01283806,-0.02214885,-0.3025,0.8032,-9.9283,0.010440,0.004790,0.018407,28.8717,17.2154,33.6915,-3.3980,0.3080,109,0,0,-0.009341,0.007582,-0.306969,0.011605,0.104601,0.005823,2.4395,-3.6299,11.4533
12834,11.0,-0.005837,-0.000140,-0.307067,0.003842,-0.003417,0.000121,-4.3051,-1.7107,0.0074,0.00067644,-0.00005248,-0.00003967,-0.00559953,0.01288975,-0.02237601,-0.2731,0.7273,-9.8650,0.026063,0.015046,0.012013,26.8906,16.5098,32.4047,-3.3980,0.3080,109,0,-1,-0.009397,0.007713,-0.306954,0.009768,0.104348,0.004810,2.4093,-3.6112,11.6408
12845,11.0,-0.005952,-0.000112,-0.307067,0.002089,-0.002507,-0.000017,-4.2850,-1.6845,0.0019,0.00064081,-0.00014027,-0.00004564,-0.00558675,0.01288020,-0.02238044,-0.2951,0.7662,-9.8117,0.025878,0.023179,0.013078,26.8906,16.5098,32.4047,-3.3980,0.3080,106,0,0,-0.009378,0.007358,-0.306912,0.009708,0.098600,0.005068,2.3495,-3.5836,11.7184
12856,11.0,-0.006105,-0.000095,-0.308075,0.000598,-0.001794,-0.011129,-4.2723,-1.6513,0.0026,0.00061623,-0.00024255,-0.00005309,-0.00543654,0.01250187,-0.01761089,-0.2432,0.7608,-9.7383,0.016640,0.031661,0.016992,26.8906,16.5098,32.4047,-3.4561,0.3100,106,0,0,-0.009470,0.007426,-0.306861,0.008210,0.099248,0.005762,2.3882,-3.5779,11.8311
12867,11.0,-0.006218,-0.000070,-0.308194,-0.001102,-0.001190,-0.010527,-4.2564,-1.6281,0.0015,0.00059173,-0.00030811,-0.00005764,-0.00541934,0.01249466,-0.01761423,-0.3195,0.7484,-9.7401,0.021551,0.022627,0.016230,26.8906,16.5098,32.4047,-3.4561,0.3100,109,0,0,-0.009730,0.007531,-0.308223,0.004741,0.099375,-0.005903,2.3697,-3.5255,12.0241
12878,11.0,-0.006278,-0.000552,-0.308232,-0.001946,-0.006678,-0.010316,-4.2881,-1.6159,0.0079,0.00085466,-0.00033257,-0.00006748,-0.00542748,0.01257039,-0.01800817,-0.3162,0.7287,-9.8680,0.001597,0.012933,0.017879,26.8906,16.5098,32.4047,-3.4561,0.3100,105,0,-1,-0.009843,0.007592,-0.308196,0.003139,0.098893,-0.003436,2.3276,-3.4957,12.0999
12889,11.0,-0.006403,-0.000606,-0.307618,-0.003612,-0.006314,-0.002207,-4.3098,-1.5874,0.0013,0.00084418,-0.00038740,-0.00007153,-0.00550914,0.01283211,-0.02140599,-0.3303,0.7621,-9.8301,-0.035221,0.033211,0.014695,26.8906,16.5098,32.4047,-3.4561,0.3080,105,0,0,-0.009871,0.007234,-0.308269,0.002567,0.093833,-0.002680,2.2920,-3.4425,11.8405
12900,11.0,-0.006577,-0.000645,-0.307572,-0.005093,-0.005609,-0.000279,-4.3233,-1.5516,0.0015,0.00082831,-0.00046269,-0.00007698,-0.00550407,0.01285299,-0.02171253,-0.2713,0.7770,-9.6919,-0.023401,0.041143,0.011689,26.8906,16.5098,32.4047,-3.4561,0.3080,107,0,0,-0.009984,0.007213,-0.307531,0.001025,0.093984,0.006303,2.2920,-3.4286,11.9538
12911,11.0,-0.006642,-0.000650,-0.307569,-0.005110,-0.003646,0.000857,-4.3170,-1.5426,-0.0008,0.00080180,-0.00046832,-0.00007656,-0.00550330,0.01283176,-0.02171448,-0.2598,0.8725,-9.6878,0.006101,0.012209,0.006973,26.8906,16.5098,32.4047,-3.4561,0.3080,107,0,0,-0.010230,0.007214,-0.307285,-0.001178,0.094136,0.011245,2.2307,-3.3800,12.1386
12922,11.0,-0.006162,-0.000633,-0.308300,0.001098,-0.001943,-0.006358,-4.3011,-1.5804,-0.0148,0.00077336,-0.00016667,-0.00005017,-0.00546478,0.01255198,-0.01826893,-0.2524,0.8424,-9.6562,0.020907,-0.003838,0.012667,26.8906,16.5098,32.4047,-3.4561,0.3100,116,1,0,-0.009845,0.007359,-0.307170,0.003562,0.096135,0.013298,2.1742,-3.3787,12.1864
12933,11.0,-0.006151,-0.000151,-0.308366,0.001095,0.004307,-0.005590,-4.2665,-1.5809,-0.0072,0.00048928,-0.00016834,-0.00004181,-0.00546332,0.01247379,-0.01827680,-0.2727,0.7965,-9.7236,0.002767,-0.002439,0.018307,27.2884,17.2228,34.0821,-3.5089,0.3100,116,0,1,-0.009942,0.007866,-0.308365,0.002374,0.102595,0.001466,2.2169,-3.3882,12.2910
12945,12.0,-0.006103,-0.000137,-0.308322,0.001082,0.003274,-0.003328,-4.2684,-1.5892,-0.0003,0.00050846,-0.00014645,-0.00004061,-0.00548451,0.01251919,-0.01876515,-0.3108,0.6817,-9.7166,0.001623,-0.010058,0.018805,27.2884,17.2228,34.0821,-3.5089,0.3100,118,0,0,-0.010011,0.008445,-0.308212,0.001609,0.106362,0.005813,2.1950,-3.3888,12.4693
12956,11.0,-0.006034,-0.000122,-0.308170,0.001662,0.002225,0.000338,-4.2663,-1.6020,-0.0003,0.00051664,-0.00011385,-0.00003837,-0.00551853,0.01260313,-0.01957163,-0.2791,0.6532,-9.6599,0.005564,-0.015591,0.015902,27.2884,17.2228,34.0821,-3.5089,0.3090,113,0,0,-0.009974,0.008526,-0.308143,0.001993,0.104449,0.007524,2.1417,-3.3855,12.5468
12967,11.0,-0.005953,-0.000095,-0.308080,0.002528,0.001713,0.002752,-4.2556,-1.6186,-0.0007,0.00051325,-0.00007832,-0.00003553,-0.00554078,0.01263247,-0.01993879,-0.2611,0.6800,-9.6703,0.017050,-0.020217,0.003649,27.2884,17.2228,34.0821,-3.5089,0.3090,122,0,0,-0.009855,0.008709,-0.307955,0.003937,0.101959,0.012002,2.1152,-3.4026,12.7223
12978,11.0,-0.005857,-0.000065,-0.308048,0.003144,0.001001,0.003042,-4.2427,-1.6375,-0.0002,0.00050282,-0.00003844,-0.00003235,-0.00554895,0.01264227,-0.01993713,-0.2970,0.6566,-9.7783,0.019166,-0.023278,0.008807,27.2884,17.2228,34.0821,-3.5089,0.3090,122,0,0,-0.009786,0.008807,-0.307705,0.004927,0.101509,0.015564,2.1417,-3.4256,12.8218
12990,12.0,-0.005694,-0.000069,-0.308509,0.004852,0.000103,-0.003380,-4.2494,-1.6678,0.0002,0.00051009,0.00003200,-0.00002749,-0.00549535,0.01246854,-0.01774845,-0.2608,0.6792,-9.8645,-0.007351,-0.033363,0.015314,27.2884,17.2228,34.0821,-3.5089,0.3100,120,0,0,-0.009706,0.008913,-0.307552,0.005841,0.100368,0.016690,2.1243,-3.3994,12.4467
13001,11.0,-0.005575,-0.000093,-0.308551,0.005677,-0.001154,-0.004324,-4.2649,-1.6851,0.0008,0.00052014,0.00006938,-0.00002526,-0.00550505,0.01248579,-0.01774621,-0.2849,0.6508,-9.8895,-0.021904,-0.021760,0.015843,27.2884,17.2228,34.0821,-3.5089,0.3100,122,0,0,-0.009430,0.009073,-0.308437,0.008884,0.098638,0.005198,2.0689,-3.4357,12.6183
13012,11.0,-0.005467,-0.000091,-0.308473,0.006285,-0.001875,-0.005000,-4.2645,-1.7019,0.0002,0.00050854,0.00009585,-0.00002312,-0.00553109,0.01253121,-0.01837649,-0.2916,0.6718,-10.0144,-0.000531,-0.022451,0.009770,27.2884,17.2228,34.0821,-3.6041,0.3100,121,0,0,-0.009315,0.009133,-0.308388,0.009832,0.097842,0.005139,2.0711,-3.4590,12.7217
13023,11.0,-0.005437,-0.000116,-0.308791,0.005199,-0.002417,-0.009841,-4.2772,-1.7004,0.0001,0.00050893,0.00007595,-0.00002462,-0.00548005,0.01245295,-0.01726617,-0.3647,0.7067,-9.9717,-0.019390,-0.001546,0.007105,27.2884,17.2228,34.0821,-3.6041,0.3100,120,0,0,-0.009135,0.009277,-0.308794,0.010226,0.096121,-0.002569,2.0259,-3.4753,12.8903
13034,11.0,-0.005486,-0.000134,-0.308797,0.003585,-0.002722,-0.009155,-4.2852,-1.6839,-0.0014,0.00050273,0.00001526,-0.00002845,-0.00548632,0.01248624,-0.01774823,-0.3384,0.7089,-9.8506,-0.013185,0.014495,0.008669,28.4739,17.2228,34.4958,-3.6041,0.3100,114,0,0,-0.009115,0.009314,-0.308715,0.009195,0.094907,-0.002025,1.9607,-3.4626,12.9634
13045,11.0,-0.005528,0.000344,-0.308899,0.002155,0.002611,-0.009401,-4.2556,-1.6713,-0.0127,0.00020429,-0.00003088,-0.00002113,-0.00546842,0.01244237,-0.01775317,-0.3442,0.7102,-9.8194,-0.007141,0.011713,0.001401,28.4739,17.2228,34.4958,-3.6041,0.3100,116,0,1,-0.009149,0.009342,-0.308736,0.007766,0.094397,-0.001718,1.9659,-3.4584,13.0703
13056,11.0,-0.005539,0.000360,-0.308929,0.001867,0.002331,-0.008676,-4.2507,-1.6679,-0.0001,0.00021150,-0.00005138,-0.00002276,-0.00547650,0.01246553,-0.01807581,-0.2823,0.7279,-9.8101,0.009496,0.001438,0.001596,28.4739,17.2228,34.4958,-3.6041,0.3100,112,0,0,-0.009417,0.010297,-0.308973,0.003350,0.102395,-0.002421,1.9576,-3.4353,13.2287
13067,11.0,-0.005565,0.000382,-0.309024,0.001696,0.002357,-0.008693,-4.2416,-1.6622,-0.0006,0.00021418,-0.00008053,-0.00002475,-0.00547612,0.01246281,-0.01807655,-0.2563,0.7461,-9.7990,0.015067,0.003774,-0.001301,28.4739,17.2228,34.4958,-3.6041,0.3100,118,0,0,-0.009432,0.010370,-0.308998,0.003150,0.101030,-0.001704,1.9062,-3.4179,13.2958
13078,11.0,-0.005658,0.000398,-0.308984,0.000304,0.002230,-0.007350,-4.2358,-1.6427,-0.0007,0.00022027,-0.00014569,-0.00002942,-0.00548808,0.01250453,-0.01869110,-0.3041,0.7382,-9.8248,0.010319,0.019587,-0.006397,28.4739,17.2228,34.4958,-3.6041,0.3100,116,0,0,-0.009458,0.010439,-0.308873,0.003026,0.100694,0.000728,1.9255,-3.4212,13.3960
13089,11.0,-0.005764,0.000389,-0.309044,-0.000595,0.001657,-0.007302,-4.2440,-1.6197,-0.0005,0.00023919,-0.00021135,-0.00003449,-0.00548484,0.01251487,-0.01878573,-0.2554,0.7190,-9.8188,-0.009474,0.024470,-0.000533,28.4739,17.2228,34.4958,-3.5089,0.3100,116,0,0,-0.009632,0.010535,-0.308855,0.001204,0.098883,0.001862,1.9104,-3.3534,13.0724
13100,11.0,-0.005788,0.000373,-0.309045,-0.000681,0.001858,-0.006146,-4.2541,-1.6143,0.0006,0.00026166,-0.00022156,-0.00003593,-0.00549602,0.01254160,-0.01913500,-0.2722,0.7935,-9.7752,-0.011828,0.006612,-0.002905,28.4739,17.2228,34.4958,-3.5089,0.3100,116,0,0,-0.009723,0.010564,-0.309079,0.000616,0.097362,-0.000010,1.8464,-3.3188,13.1386
13111,11.0,-0.005818,0.000368,-0.309109,-0.000312,0.002075,-0.005564,-4.2589,-1.6079,-0.0001,0.00027917,-0.00023814,-0.00003751,-0.00550131,0.01253639,-0.01913550,-0.2190,0.7851,-9.7436,-0.003947,0.006587,0.005640,28.4739,17.2228,34.4958,-3.5089,0.3100,114,0,0,-0.009756,0.010595,-0.309076,0.000431,0.097120,0.000985,1.8483,-3.3177,13.2350
13122,11.0,-0.005707,0.000391,-0.309578,0.001001,0.003074,-0.011940,-4.2473,-1.6326,-0.0006,0.00028191,-0.00017043,-0.00003246,-0.00545069,0.01242242,-0.01744168,-0.2829,0.8491,-9.9491,0.019220,-0.027377,0.001832,28.4739,17.2228,34.4958,-3.5089,0.3110,108,0,0,-0.009763,0.010715,-0.308919,0.001454,0.096923,0.003885,1.8035,-3.3080,13.3928
13133,11.0,-0.005627,0.000383,-0.309719,0.001498,0.003692,-0.013640,-4.2546,-1.6466,-0.0002,0.00031163,-0.00012800,-0.00003001,-0.00545177,0.01241124,-0.01744186,-0.3166,0.8553,-9.9419,-0.005110,-0.016376,0.023223,26.4981,16.5023,34.4958,-3.5089,0.3110,112,0,0,-0.009672,0.010816,-0.309770,0.002524,0.097217,-0.006149,1.7489,-3.3105,13.4517
13144,11.0,-0.005601,0.000389,-0.309775,0.001102,0.003026,-0.014005,-4.2572,-1.6494,0.0005,0.00033140,-0.00012049,-0.00003007,-0.00546794,0.01244547,-0.01788797,-0.3402,0.7239,-9.9417,0.000259,-0.004851,0.019954,26.4981,16.5023,34.4958,-3.5089,0.3110,105,0,0,-0.009536,0.010955,-0.309819,0.002898,0.097187,-0.006452,1.6950,-3.3283,13.6356
13156,12.0,-0.005656,0.000430,-0.309436,-0.000084,0.002881,-0.007642,-4.2396,-1.6380,0.0007,0.00032813,-0.00015894,-0.00003300,-0.00552944,0.01260088,-0.01999502,-0.3238,0.7198,-9.7535,0.025746,0.009244,0.010734,26.4981,16.5023,34.4958,-3.4878,0.3100,107,0,0,-0.009522,0.011017,-0.309766,0.002453,0.096483,-0.005487,1.7037,-3.3359,13.7441
13167,11.0,-0.005736,0.000484,-0.309439,-0.000713,0.002953,-0.005440,-4.2135,-1.6250,0.0000,0.00031355,-0.00020683,-0.00003615,-0.00553365,0.01262262,-0.02031250,-0.2576,0.7104,-9.6815,0.039165,0.011538,0.004719,26.4981,16.5023,34.4958,-3.4878,0.3100,103,0,0,-0.009646,0.011171,-0.309550,0.000474,0.094760,0.000200,1.6927,-3.3154,13.9261
13178,11.0,-0.005785,0.000503,-0.309489,-0.000849,0.002170,-0.003591,-4.2086,-1.6161,0.0001,0.00031915,-0.00023243,-0.00003818,-0.00553480,0.01263495,-0.02031188,-0.2479,0.6606,-9.6376,0.009162,0.008793,0.007442,26.4981,16.5023,34.4958,-3.4878,0.3100,107,0,0,-0.009725,0.011249,-0.309447,-0.000108,0.093621,0.003205,1.6592,-3.2898,13.9952
13189,11.0,-0.005811,0.000505,-0.309745,-0.000768,0.001317,-0.004028,-4.2113,-1.6110,0.0001,0.00032960,-0.00024360,-0.00003929,-0.00549965,0.01256521,-0.01936509,-0.2502,0.6580,-9.6039,-0.001933,0.005579,0.005648,26.4981,16.5023,34.4958,-3.4878,0.3110,107,0,0,-0.009776,0.011305,-0.309406,-0.000058,0.092852,0.005599,1.6958,-3.2616,13.6252
13200,11.0,-0.005804,0.000546,-0.309787,-0.000645,0.000402,-0.003478,-4.1927,-1.6155,0.0002,0.00030827,-0.00023437,-0.00003816,-0.00549995,0.01258284,-0.01936365,-0.2844,0.6119,-9.7577,0.025768,-0.005348,-0.005735,26.4981,16.5023,34.4958,-3.4878,0.3110,112,0,0,-0.009837,0.011416,-0.309867,0.000008,0.090412,0.004356,1.6565,-3.2417,13.7917
13211,11.0,-0.005798,0.000585,-0.309738,-0.000412,-0.000142,-0.003881,-4.1733,-1.6200,-0.0003,0.00028416,-0.00022697,-0.00003696,-0.00551483,0.01260819,-0.01976598,-0.2775,0.6494,-9.9456,0.026594,-0.005389,-0.009967,26.4981,16.5023,34.4958,-3.4878,0.3110,103,0,0,-0.009842,0.011506,-0.309823,0.000203,0.089136,0.005403,1.6269,-3.2315,13.8532
13223,12.0,-0.005880,0.000599,-0.309938,-0.001395,0.000013,-0.007041,-4.1650,-1.6046,-0.0011,0.00027519,-0.00027192,-0.00003968,-0.00548452,0.01256097,-0.01917894,-0.2978,0.7339,-9.9235,0.010447,0.016068,-0.014481,26.8933,16.1421,32.8412,-3.4878,0.3110,110,0,0,-0.009903,0.011647,-0.310029,-0.000158,0.088268,0.001423,1.6093,-3.2177,13.9963
13234,11.0,-0.006011,0.000566,-0.309940,-0.001899,0.000350,-0.005799,-4.1819,-1.5771,-0.0008,0.00029778,-0.00034428,-0.00004527,-0.00548296,0.01258653,-0.01948915,-0.2015,0.7913,-9.7639,-0.022862,0.030901,-0.005858,26.8933,16.1421,32.8412,-3.4878,0.3110,109,0,0,-0.009992,0.011667,-0.309927,-0.001247,0.088549,0.002622,1.6162,-3.2060,14.0849
13245,11.0,-0.006103,0.000553,-0.309991,-0.002191,0.000866,-0.003528,-4.1883,-1.5589,-0.0007,0.00031055,-0.00038885,-0.00004863,-0.00548097,0.01257968,-0.01949015,-0.2210,0.7802,-9.5902,-0.007211,0.020128,0.008105,26.8933,16.1421,32.8412,-3.4878,0.3110,119,0,0,-0.010101,0.011666,-0.309901,-0.001940,0.088003,0.003725,1.5464,-3.1667,14.1443
13256,11.0,-0.006093,0.000562,-0.310526,-0.001419,0.001440,-0.006614,-4.1836,-1.5630,-0.0000,0.00031231,-0.00037056,-0.00004733,-0.00542028,0.01243545,-0.01742622,-0.2274,0.7658,-9.5393,0.008288,-0.004279,0.009728,26.8933,16.1421,32.8412,-3.4878,0.3120,119,0,0,-0.010199,0.011674,-0.309854,-0.002505,0.088156,0.006343,1.5469,-3.1532,14.2410
13267,11.0,-0.005869,0.000582,-0.310592,0.001298,0.001117,-0.005364,-4.1757,-1.6101,0.0008,0.00030834,-0.00022798,-0.00003704,-0.00545632,0.01243971,-0.01742387,-0.2670,0.6841,-9.6871,0.012512,-0.051098,0.013034,26.8933,16.1421,32.8412,-3.4878,0.3120,115,0,0,-0.010132,0.011810,-0.310758,-0.000781,0.088447,0.001843,1.5035,-3.1573,14.3991
13278,11.0,-0.005653,0.000587,-0.310555,0.003357,0.000205,-0.004067,-4.1765,-1.6522,0.0017,0.00030982,-0.00010668,-0.00002873,-0.00549650,0.01246794,-0.01781618,-0.3005,0.6453,-9.7885,-0.000132,-0.046671,0.013421,26.8933,16.1421,32.8412,-3.4878,0.3120,118,0,0,-0.009949,0.011927,-0.310631,0.001512,0.088174,0.005054,1.4611,-3.1782,14.4605
13289,11.0,-0.005490,0.000588,-0.310298,0.004641,0.000123,-0.001465,-4.1768,-1.6823,0.0011,0.00031081,-0.00003013,-0.00002351,-0.00554544,0.01255292,-0.01904255,-0.3035,0.7268,-9.8850,0.000136,-0.034810,0.003584,26.8933,16.1421,32.8412,-3.4878,0.3110,121,0,0,-0.009602,0.012118,-0.310456,0.004947,0.087496,0.007516,1.4409,-3.2048,14.1104
13300,11.0,-0.005378,0.000581,-0.310246,0.005191,0.000946,-0.001508,-4.1790,-1.7007,0.0003,0.00031855,0.00000678,-0.00002107,-0.00556105,0.01257550,-0.01934311,-0.3086,0.8205,-9.8755,-0.001614,-0.022975,0.002400,26.8933,16.1421,32.8412,-3.4878,0.3110,126,0,0,-0.009462,0.012201,-0.310304,0.005830,0.087927,0.008304,1.4492,-3.2324,14.2003
13311,11.0,-0.005747,0.000587,-0.310264,0.000746,0.001951,-0.001792,-4.1758,-1.6883,0.0011,0.00032605,-0.00024960,-0.00004045,-0.00551855,0.01256209,-0.01934751,-0.2656,0.8314,-9.8181,0.007376,-0.026692,0.013752,26.8933,16.1421,32.8412,-3.4878,0.3110,124,-1,0,-0.009703,0.012227,-0.310022,0.001357,0.087839,0.010048,1.3954,-3.2340,14.3691
13322,11.0,-0.005579,0.000605,-0.310096,0.003032,0.002648,-0.000031,-4.1679,-1.7224,-0.0010,0.00033111,-0.00015528,-0.00003331,-0.00555602,0.01261698,-0.02010080,-0.2479,0.8013,-9.8366,0.014397,-0.039289,0.021005,26.8933,16.1421,32.8412,-3.4878,0.3110,119,0,0,-0.009599,0.012311,-0.310220,0.002391,0.088377,0.007335,1.3388,-3.2374,14.4354
13333,11.0,-0.005438,0.000626,-0.310098,0.004666,0.002514,-0.000391,-4.1603,-1.7487,-0.0008,0.00033570,-0.00009270,-0.00002856,-0.00557215,0.01261579,-0.02009985,-0.2599,0.7231,-9.8339,0.014015,-0.032645,0.023860,26.4981,15.4217,34.4958,-3.4878,0.3110,124,0,0,-0.009455,0.012412,-0.310146,0.003944,0.089495,0.007832,1.3526,-3.2683,14.5350
13345,12.0,-0.005893,0.000666,-0.310010,-0.001043,0.000805,0.000031,-4.1456,-1.7199,-0.0034,0.00032328,-0.00039991,-0.00004963,-0.00553820,0.01264361,-0.02049620,-0.3045,0.5671,-9.8728,0.020157,-0.009203,0.014567,26.4981,15.4217,34.4958,-3.4878,0.3110,119,-1,0,-0.009248,0.012613,-0.309880,0.006039,0.088602,0.009667,1.3236,-3.2939,14.7089
13356,11.0,-0.005933,0.000719,-0.310586,-0.001790,-0.001135,-0.007732,-4.1210,-1.7157,0.0003,0.00028390,-0.00041562,-0.00004995,-0.00545881,0.01252995,-0.01827356,-0.3447,0.4921,-9.9221,0.031702,0.004273,-0.007635,26.4981,15.4217,34.4958,-3.4878,0.3120,116,0,0,-0.009661,0.012591,-0.310696,0.000942,0.085272,-0.000339,1.2907,-3.2658,14.7964
13367,11.0,-0.006042,0.000734,-0.310604,-0.003187,-0.002920,-0.007996,-4.1153,-1.6960,-0.0031,0.00026047,-0.00046782,-0.00005212,-0.00546124,0.01254840,-0.01857050,-0.3408,0.5231,-9.9158,0.004468,0.023007,-0.019147,26.4981,15.4217,34.4958,-3.4878,0.3120,111,0,0,-0.009770,0.012740,-0.310717,-0.000370,0.081237,-0.001319,1.2923,-3.2463,14.9471
13378,11.0,-0.006699,0.000704,-0.310695,-0.010355,-0.004093,-0.008565,-4.1296,-1.6307,-0.0214,0.00025413,-0.00084152,-0.00007204,-0.00541075,0.01257001,-0.01857460,-0.3158,0.6038,-9.8584,-0.024649,0.038691,-0.020331,26.4981,15.4217,34.4958,-3.5248,0.3120,108,-1,0,-0.009882,0.012763,-0.310595,-0.001596,0.079559,-0.000061,1.3014,-3.2297,15.0285
13389,11.0,-0.006840,0.000661,-0.310327,-0.010535,-0.003901,-0.002856,-4.1479,-1.6088,-0.0008,0.00025461,-0.00085753,-0.00007295,-0.00546530,0.01268363,-0.02034892,-0.2719,0.7331,-9.7638,-0.029087,0.032352,-0.019067,26.4981,15.4217,34.4958,-3.5248,0.3110,112,0,0,-0.010450,0.012631,-0.310601,-0.007819,0.076479,-0.000014,1.2692,-3.1469,14.5531
13400,11.0,-0.006958,0.000640,-0.310354,-0.009936,-0.002869,-0.002129,-4.1528,-1.5936,-0.0008,0.00024487,-0.00086153,-0.00007272,-0.00547232,0.01267065,-0.02034966,-0.2187,0.7932,-9.7310,-0.009727,0.023994,-0.018469,26.4981,15.4217,34.4958,-3.5248,0.3110,111,0,0,-0.010672,0.012595,-0.310403,-0.008641,0.076041,0.004040,1.1951,-3.0971,14.6863
13411,11.0,-0.007058,0.000629,-0.310265,-0.009159,-0.001373,-0.000114,-4.1524,-1.5823,0.0000,0.00023699,-0.00085860,-0.00007232,-0.00548699,0.01269500,-0.02077950,-0.2107,0.8400,-9.7290,-0.001061,0.018968,-0.019689,26.4981,15.4217,34.4958,-3.5248,0.3120,111,0,0,-0.010766,0.012597,-0.310356,-0.008557,0.077081,0.005656,1.1964,-3.0861,14.7671
13422,11.0,-0.007137,0.000625,-0.310699,-0.008734,0.000059,-0.004208,-4.1506,-1.5743,-0.0003,0.00023510,-0.00084709,-0.00007132,-0.00543555,0.01257853,-0.01910790,-0.2559,0.8430,-9.7035,0.002550,0.014495,-0.006229,26.1030,16.5023,34.0821,-3.5248,0.3120,113,0,0,-0.010941,0.012631,-0.310882,-0.008627,0.079111,0.002442,1.1442,-3.0473,14.9011
13434,12.0,-0.007123,0.000621,-0.310659,-0.007089,0.000780,-0.002414,-4.1522,-1.5862,0.0002,0.00024132,-0.00077663,-0.00006635,-0.00545777,0.01260038,-0.01944407,-0.2459,0.7871,-9.7318,-0.000927,-0.007253,0.006983,26.1030,16.5023,34.0821,-3.5248,0.3120,107,0,0,-0.010989,0.012662,-0.310750,-0.008592,0.079663,0.005247,1.0879,-3.0290,14.9605
13446,12.0,-0.007052,0.000125,-0.310687,-0.005144,-0.004364,-0.002219,-4.1857,-1.6085,0.0000,0.00054605,-0.00068369,-0.00006710,-0.00547487,0.01264159,-0.01944184,-0.2591,0.7670,-9.7809,0.001272,-0.018833,0.008393,26.1030,16.5023,34.0821,-3.5248,0.3100,109,0,-1,-0.010970,0.012709,-0.310692,-0.007616,0.080498,0.006703,1.0920,-3.0393,15.0519
13457,11.0,-0.006984,0.000102,-0.309721,-0.003413,-0.004032,0.008930,-4.1940,-1.6245,0.0001,0.00053250,-0.00060935,-0.00006127,-0.00560037,0.01288452,-0.02315749,-0.2485,0.7360,-9.8241,-0.014330,-0.014069,0.011281,26.1030,16.5023,34.0821,-3.5248,0.3100,102,0,0,-0.010602,0.011967,-0.309742,-0.002175,0.071849,0.016717,1.0095,-3.0597,15.2165
13468,11.0,-0.006915,0.000067,-0.309628,-0.001691,-0.003743,0.007974,-4.2083,-1.6381,-0.0005,0.00052749,-0.00054835,-0.00005645,-0.00561555,0.01287860,-0.02315709,-0.2344,0.7537,-9.8898,-0.022360,-0.013026,0.022992,26.1030,16.5023,34.0821,-3.5248,0.3100,107,0,0,-0.010537,0.012003,-0.309576,-0.000979,0.072362,0.017177,0.9518,-3.0547,15.2821
13479,11.0,-0.006839,0.000536,-0.309436,-0.000190,0.002076,0.008334,-4.1849,-1.6523,0.0018,0.00022324,-0.00049381,-0.00004542,-0.00563466,0.01287135,-0.02358006,-0.2456,0.7505,-9.8890,-0.015629,-0.015130,0.023295,26.1030,16.5023,34.0821,-3.5248,0.3100,106,0,1,-0.010476,0.012027,-0.309268,0.000067,0.073346,0.018857,0.9443,-3.0662,15.3801
13490,11.0,-0.006843,0.000570,-0.310279,0.000763,0.001837,-0.003579,-4.1699,-1.6528,-0.0006,0.00021543,-0.00050095,-0.00004553,-0.00555251,0.01262604,-0.02013314,-0.1975,0.7013,-9.9182,0.023027,-0.003626,0.015039,26.1030,16.5023,34.0821,-3.5248,0.3120,111,0,0,-0.010471,0.012544,-0.310587,0.000678,0.078816,0.000665,0.9179,-3.0517,15.0748
13501,11.0,-0.006901,0.000646,-0.310238,0.000409,0.002103,-0.003260,-4.1314,-1.6451,0.0003,0.00018082,-0.00054184,-0.00004778,-0.00555714,0.01264614,-0.02045521,-0.2525,0.6957,-9.8656,0.055086,0.004419,0.000469,26.1030,16.5023,34.0821,-3.5248,0.3120,106,0,0,-0.010466,0.012615,-0.310491,0.001239,0.078577,0.001302,0.8827,-3.0368,15.1430
13512,11.0,-0.006963,0.000706,-0.310276,0.000227,0.002359,-0.003702,-4.1017,-1.6358,-0.0003,0.00015840,-0.00058379,-0.00005020,-0.00556120,0.01264314,-0.02045550,-0.2342,0.7072,-9.8436,0.043398,0.006639,0.000681,26.1030,16.5023,34.0821,-3.5248,0.3120,106,0,0,-0.010594,0.012794,-0.310323,0.000080,0.078676,0.003191,0.9018,-3.0131,15.2959
13523,11.0,-0.006519,0.000714,-0.310123,0.006030,0.002178,-0.001437,-4.1007,-1.6583,0.0016,0.00016926,-0.00032385,-0.00003191,-0.00560366,0.01269645,-0.02116849,-0.2013,0.7164,-9.8020,0.003898,0.009266,0.011582,26.1030,16.1421,33.6685,-3.5248,0.3110,114,1,0,-0.010633,0.012854,-0.310437,-0.000083,0.078865,0.002190,0.9181,-3.0105,15.3864
13534,11.0,-0.006080,0.000686,-0.310142,0.010270,0.001731,-0.001933,-4.1188,-1.6720,0.0009,0.00020053,-0.00010283,-0.00001675,-0.00562398,0.01269522,-0.02116662,-0.2832,0.7294,-9.8464,-0.022394,0.016335,0.015982,26.1030,16.1421,33.6685,-3.5248,0.3110,114,1,0,-0.010245,0.013014,-0.310414,0.004717,0.079631,0.002883,0.8739,-3.0029,15.4412
13545,11.0,-0.006148,0.000639,-0.310064,0.008060,0.000623,-0.002381,-4.1480,-1.6446,-0.0016,0.00023871,-0.00020931,-0.00002499,-0.00562549,0.01272795,-0.02157795,-0.3147,0.6929,-9.9617,-0.038884,0.023128,0.017772,26.1030,16.1421,33.6685,-3.5248,0.3120,111,0,0,-0.009892,0.013137,-0.310232,0.006819,0.078880,0.004328,0.7988,-2.9810,15.6033
13556,11.0,-0.006240,0.000614,-0.310619,0.005655,-0.000105,-0.010585,-4.1637,-1.6154,-0.0012,0.00025675,-0.00031699,-0.00003294,-0.00557105,0.01259314,-0.01968796,-0.3292,0.7008,-10.0033,-0.021172,0.025631,0.015505,26.1030,16.1421,33.6685,-3.5248,0.3120,114,0,0,-0.009944,0.013120,-0.310936,0.005039,0.077670,-0.004678,0.7759,-2.9629,15.7053
13567,11.0,-0.006415,0.000610,-0.310661,0.002852,-0.000160,-0.011106,-4.1664,-1.5733,-0.0019,0.00025854,-0.00045735,-0.00004264,-0.00557423,0.01261592,-0.02000429,-0.3005,0.7326,-9.9377,-0.003218,0.040189,0.017867,26.1030,16.1421,33.6685,-3.5248,0.3120,119,0,0,-0.010139,0.013109,-0.311061,0.000758,0.075494,-0.007197,0.7118,-2.9083,15.8869
13578,11.0,-0.006629,0.000617,-0.310781,0.000185,-0.000019,-0.010695,-4.1627,-1.5268,-0.0018,0.00025381,-0.00060287,-0.00005260,-0.00556701,0.01261349,-0.02000561,-0.2669,0.7267,-9.7630,0.005531,0.046416,0.010823,26.1030,16.1421,33.6685,-3.5248,0.3120,123,0,0,-0.010306,0.013102,-0.311000,-0.001718,0.074362,-0.005845,0.6645,-2.8656,15.9666
13588,10.0,-0.006792,0.001129,-0.310383,-0.001444,0.005588,-0.003054,-4.1171,-1.4962,-0.0003,-0.00005067,-0.00070054,-0.00005187,-0.00560332,0.01271643,-0.02180817,-0.2389,0.6971,-9.6158,0.019898,0.032997,0.009503,26.1030,16.1421,33.6685,-3.5248,0.3110,118,0,1,-0.010496,0.013095,-0.310783,-0.003922,0.073925,-0.001851,0.6913,-2.8152,15.5633
13600,12.0,-0.006307,0.001181,-0.310407,0.004555,0.005098,-0.000942,-4.0975,-1.5311,0.0044,-0.00004365,-0.00040571,-0.00003194,-0.00564512,0.01272172,-0.02180530,-0.2241,0.6752,-9.6307,0.030004,-0.004179,0.016524,26.1030,16.1421,33.6685,-3.5618,0.3110,121,1,0,-0.010450,0.013720,-0.310652,-0.002538,0.079003,0.004415,0.6945,-2.7830,15.7168
13611,11.0,-0.006243,0.001229,-0.310286,0.004650,0.004174,0.001926,-4.0798,-1.5418,0.0002,-0.00004133,-0.00039721,-0.00003145,-0.00565803,0.01275396,-0.02226524,-0.2701,0.6247,-9.6833,0.028991,-0.016977,0.015617,26.1030,16.1421,33.6685,-3.5618,0.3110,125,0,0,-0.010457,0.013804,-0.310600,-0.002368,0.078037,0.006698,0.6685,-2.7722,15.7893
13622,11.0,-0.006211,0.001270,-0.310721,0.004149,0.002959,-0.002441,-4.0642,-1.5459,0.0003,-0.00004451,-0.00040791,-0.00003227,-0.00560742,0.01266300,-0.02060933,-0.2950,0.5910,-9.7216,0.024063,-0.009054,0.004180,26.9014,17.5607,32.9098,-3.5618,0.3120,120,0,0,-0.010420,0.013897,-0.310330,-0.001999,0.077367,0.010777,0.6886,-2.7847,15.8828
13633,11.0,-0.006219,0.001304,-0.310651,0.003247,0.001500,-0.000904,-4.0520,-1.5420,-0.0014,-0.00005028,-0.00043824,-0.00003380,-0.00561164,0.01268514,-0.02095875,-0.2984,0.5625,-9.7751,0.018208,0.000475,-0.002107,26.9014,17.5607,32.9098,-3.5618,0.3120,115,0,0,-0.010399,0.014062,-0.310980,-0.002269,0.074605,0.005014,0.6783,-2.7856,16.0391
13644,11.0,-0.006248,0.001286,-0.310654,0.002718,0.000010,0.000411,-4.0655,-1.5314,-0.0019,-0.00003526,-0.00047697,-0.00003632,-0.00560810,0.01271214,-0.02095709,-0.2475,0.5906,-9.6918,-0.019272,0.009754,-0.006057,26.9014,17.5607,32.9098,-3.5618,0.3120,118,0,0,-0.010418,0.014125,-0.310928,-0.002478,0.072795,0.005987,0.6524,-2.7743,16.1051
13655,11.0,-0.006255,0.001255,-0.310275,0.002442,-0.000887,0.005758,-4.0834,-1.5252,-0.0013,-0.00001857,-0.00049842,-0.00003785,-0.00563980,0.01279412,-0.02226176,-0.2520,0.6474,-9.7088,-0.025406,0.005760,-0.003815,26.9014,17.5607,32.9098,-3.5618,0.3110,118,0,0,-0.010451,0.014149,-0.310861,-0.002573,0.071445,0.007592,0.6502,-2.7687,16.1874
13666,11.0,-0.006142,0.001204,-0.310212,0.003162,-0.001559,0.005670,-4.1113,-1.5420,0.0030,0.00000511,-0.00044698,-0.00003582,-0.00564478,0.01279989,-0.02226132,-0.2907,0.6923,-9.8127,-0.039875,-0.018153,0.004266,26.9014,17.5607,32.9098,-3.5988,0.3110,119,0,0,-0.010401,0.014175,-0.310488,-0.001895,0.069531,0.012441,0.5800,-2.7592,16.3308
13677,11.0,-0.006007,0.001175,-0.310013,0.004000,-0.002262,0.007491,-4.1266,-1.5640,0.0033,0.00001035,-0.00038775,-0.00003284,-0.00566960,0.01282759,-0.02275381,-0.2962,0.6594,-9.7885,-0.022944,-0.025133,0.005044,26.9014,17.5607,32.9098,-3.5988,0.3110,115,0,0,-0.010300,0.014197,-0.310223,-0.001066,0.068784,0.014771,0.5162,-2.7616,16.3961
13688,11.0,-0.005920,0.001216,-0.310559,0.004318,-0.001821,-0.000471,-4.1006,-1.5814,0.0013,-0.00003172,-0.00036233,-0.00003038,-0.00560701,0.01270519,-0.02056235,-0.2914,0.6932,-9.8716,0.033100,-0.022726,-0.009235,26.9014,17.5607,32.9098,-3.5988,0.3120,125,0,0,-0.010074,0.014301,-0.310935,0.000683,0.068287,0.005422,0.4764,-2.7710,16.0834
13698,10.0,-0.005850,0.001267,-0.310467,0.004683,-0.000860,-0.000216,-4.0731,-1.5954,0.0005,-0.00007064,-0.00034697,-0.00002844,-0.00562018,0.01271909,-0.02093171,-0.2721,0.7415,-9.8968,0.040059,-0.021105,-0.009496,26.9014,17.5607,32.9098,-3.5988,0.3120,114,0,0,-0.010009,0.014400,-0.310772,0.000705,0.069044,0.006663,0.5029,-2.7877,16.1612
13709,11.0,-0.006290,0.001275,-0.310475,-0.000554,-0.000362,-0.001357,-4.0667,-1.5690,-0.0116,-0.00007923,-0.00063418,-0.00004491,-0.00558722,0.01271117,-0.02093343,-0.2550,0.7454,-9.9045,0.008457,-0.010587,-0.002117,26.9014,17.5607,32.9098,-3.5988,0.3120,110,-1,0,-0.009963,0.014500,-0.310709,0.000644,0.069674,0.006319,0.4846,-2.7892,16.2183
13721,12.0,-0.006222,0.001279,-0.310745,0.000588,-0.000855,-0.005658,-4.0647,-1.5837,0.0018,-0.00008695,-0.00059215,-0.00004230,-0.00556566,0.01266601,-0.02008452,-0.2502,0.6648,-9.9293,0.001596,-0.015577,0.007901,27.2911,17.2154,33.2778,-3.5988,0.3120,111,0,0,-0.010311,0.014492,-0.311129,-0.003452,0.068942,-0.000330,0.4517,-2.7771,16.3741
13733,12.0,-0.006151,0.001269,-0.310818,0.001884,-0.001087,-0.006591,-4.0690,-1.5970,0.0011,-0.00008856,-0.00055783,-0.00004016,-0.00557694,0.01266656,-0.02008414,-0.2269,0.6916,-9.8822,-0.006440,-0.014690,0.007326,27.2911,17.2154,33.2778,-3.5988,0.3120,112,0,0,-0.010244,0.014555,-0.311136,-0.002364,0.068988,-0.000810,0.4558,-2.7915,16.4618
13744,11.0,-0.006134,0.001250,-0.310784,0.002233,-0.001918,-0.007037,-4.0799,-1.5966,-0.0002,-0.00008634,-0.00056123,-0.00004040,-0.00558907,0.01268872,-0.02049986,-0.2458,0.6484,-9.9745,-0.016680,-0.001238,0.007702,27.2911,17.2154,33.2778,-3.5406,0.3120,109,0,0,-0.010392,0.015514,-0.311004,-0.003608,0.078032,0.000342,0.4464,-2.7954,16.6066
13755,11.0,-0.006192,0.001221,-0.310987,0.001439,-0.002962,-0.009899,-4.0950,-1.5803,-0.0023,-0.00008615,-0.00060931,-0.00004307,-0.00557499,0.01268210,-0.02009335,-0.2705,0.6276,-9.9444,-0.024068,0.016410,0.002253,27.2911,17.2154,33.2778,-3.5406,0.3120,110,0,0,-0.010392,0.015545,-0.311302,-0.003136,0.076110,-0.003909,0.3945,-2.7796,16.6749
13766,11.0,-0.006277,0.000699,-0.311013,0.000300,-0.009424,-0.009764,-4.1414,-1.5591,-0.0048,0.00019403,-0.00066727,-0.00005278,-0.00558092,0.01270855,-0.02040873,-0.2787,0.6244,-9.8923,-0.022207,0.022166,0.003247,27.2911,17.2154,33.2778,-3.5406,0.3120,110,0,-1,-0.010439,0.015551,-0.311346,-0.003441,0.074278,-0.004680,0.3799,-2.7681,16.7620
13777,11.0,-0.006357,0.000201,-0.311122,-0.000671,-0.014359,-0.010142,-4.1653,-1.5425,-0.0034,0.00041972,-0.00071485,-0.00006086,-0.00557625,0.01272369,-0.02040903,-0.2766,0.6738,-9.8392,0.003754,0.017019,-0.003245,27.2911,17.2154,33.2778,-3.5406,0.3130,109,0,-1,-0.010315,0.014693,-0.312028,-0.002014,0.061660,-0.011672,0.2867,-2.7275,16.9221
13788,11.0,-0.006425,0.000192,-0.311619,-0.000755,-0.012925,-0.015054,-4.1521,-1.5297,-0.0011,0.00033189,-0.00075211,-0.00006088,-0.00553833,0.01265363,-0.01910711,-0.2134,0.7051,-9.8482,0.004774,0.013273,-0.004885,27.2911,17.2154,33.2778,-3.5406,0.3130,111,0,0,-0.010258,0.014276,-0.312146,-0.001492,0.056444,-0.011480,0.2535,-2.6903,16.4904
13799,11.0,-0.006511,0.000199,-0.311786,-0.001382,-0.010903,-0.015359,-4.1316,-1.5142,-0.0012,0.00024836,-0.00079739,-0.00006157,-0.00553842,0.01264243,-0.01910766,-0.2452,0.7595,-9.8255,0.017248,0.015649,-0.002958,27.2911,17.2154,33.2778,-3.5406,0.3130,106,0,0,-0.010395,0.014310,-0.312252,-0.002986,0.058024,-0.009582,0.2310,-2.6567,16.6324
13810,11.0,-0.006166,0.000174,-0.311838,0.003095,-0.009110,-0.013587,-4.1302,-1.5167,0.0068,0.00019638,-0.00059307,-0.00004783,-0.00556169,0.01265998,-0.01950836,-0.2208,0.7868,-9.7601,-0.006770,0.032652,0.007956,27.2911,17.2154,33.2778,-3.5406,0.3130,104,1,0,-0.010047,0.014455,-0.312347,0.000798,0.060678,-0.009092,0.2432,-2.6612,16.7072
13821,11.0,-0.006331,0.000145,-0.312032,0.000944,-0.007505,-0.012153,-4.1334,-1.4782,-0.0017,0.00015921,-0.00070689,-0.00005460,-0.00554613,0.01263576,-0.01932193,-0.2522,0.7837,-9.6067,-0.011461,0.038376,0.014256,26.4981,16.5023,33.2548,-3.5406,0.3130,110,0,0,-0.009728,0.014573,-0.312502,0.003879,0.062467,-0.008901,0.1985,-2.6429,16.7669
13832,11.0,-0.006404,0.000136,-0.312073,-0.000382,-0.006756,-0.009379,-4.1290,-1.4614,-0.0003,0.00011715,-0.00075246,-0.00005672,-0.00554753,0.01264687,-0.01960891,-0.2930,0.7001,-9.6382,-0.000252,0.016485,0.015840,26.4981,16.5023,33.2548,-3.5195,0.3130,110,0,0,-0.009961,0.014542,-0.312522,-0.000778,0.062313,-0.002878,0.1522,-2.5846,16.9398
13843,11.0,-0.006335,0.000131,-0.312180,0.000075,-0.006849,-0.010036,-4.1250,-1.4745,0.0018,0.00007429,-0.00070968,-0.00005317,-0.00554505,0.01265474,-0.01960844,-0.2921,0.6392,-9.8656,-0.001165,-0.014522,0.013059,26.4981,16.5023,33.2548,-3.5195,0.3130,119,0,0,-0.009953,0.014584,-0.312546,-0.001581,0.062015,-0.001536,0.1580,-2.5862,17.0318
13854,11.0,-0.006324,0.000120,-0.312117,-0.000475,-0.007008,-0.008780,-4.1241,-1.4753,0.0003,0.00003536,-0.00070173,-0.00005165,-0.00556068,0.01268668,-0.02020332,-0.3239,0.6386,-9.8785,-0.005650,-0.000831,0.005484,26.4981,16.5023,33.2548,-3.5195,0.3130,119,0,0,-0.009898,0.014638,-0.312634,-0.001444,0.061415,-0.002196,0.1244,-2.5872,17.1057
13865,11.0,-0.006420,0.000106,-0.312218,-0.002158,-0.007570,-0.009510,-4.1246,-1.4552,-0.0012,-0.00000603,-0.00074979,-0.00005363,-0.00554080,0.01270469,-0.02020234,-0.3245,0.5994,-9.8750,-0.008738,0.022770,-0.006324,26.4981,16.5023,33.2548,-3.5195,0.3130,120,0,0,-0.009907,0.014688,-0.312588,-0.002968,0.059684,-0.001750,0.0878,-2.5772,17.2625
13876,11.0,-0.006489,0.000135,-0.312217,-0.002859,-0.006770,-0.008584,-4.0995,-1.4459,-0.0013,-0.00007056,-0.00077418,-0.00005317,-0.00554832,0.01272125,-0.02056924,-0.2751,0.6762,-9.8363,0.027386,0.010611,-0.014556,26.4981,16.5023,33.2548,-3.5195,0.3120,119,0,0,-0.009993,0.014689,-0.312468,-0.004482,0.058673,-0.000274,0.0881,-2.5614,17.3442
13887,11.0,-0.006535,0.000169,-0.311658,-0.002651,-0.005149,-0.000720,-4.0713,-1.4422,-0.0006,-0.00012869,-0.00078367,-0.00005207,-0.00561227,0.01283681,-0.02272824,-0.2164,0.7512,-9.7724,0.033750,0.004075,-0.011948,26.4981,16.5023,33.2548,-3.5565,0.3120,119,0,0,-0.010133,0.014771,-0.311953,-0.006242,0.059242,0.005876,0.1096,-2.5257,16.9652
13898,11.0,-0.006608,0.000188,-0.311567,-0.002454,-0.004350,0.001578,-4.0543,-1.4314,-0.0004,-0.00017080,-0.00081089,-0.00005280,-0.00561802,0.01285096,-0.02304483,-0.1824,0.6974,-9.6992,0.018777,0.012043,-0.009335,26.4981,16.5023,33.2548,-3.5565,0.3120,121,0,0,-0.010194,0.014819,-0.311768,-0.006462,0.059966,0.008407,0.0888,-2.5075,17.0214
13909,11.0,-0.006653,0.000203,-0.311543,-0.001919,-0.003239,0.002852,-4.0398,-1.4256,-0.0003,-0.00020376,-0.00082406,-0.00005278,-0.00562743,0.01283869,-0.02304536,-0.1764,0.7381,-9.6889,0.016533,0.006051,-0.004847,26.4981,16.5023,33.2548,-3.5565,0.3130,123,0,0,-0.010266,0.014852,-0.311676,-0.006599,0.060524,0.010118,0.1032,-2.4995,17.0989
13920,11.0,-0.006661,0.000186,-0.311770,-0.001753,-0.002743,0.001034,-4.0442,-1.4243,0.0003,-0.00021369,-0.00081655,-0.00005209,-0.00560526,0.01278390,-0.02217459,-0.2457,0.7230,-9.6895,-0.008910,0.002379,0.004735,26.8906,16.5098,33.6455,-3.5565,0.3130,122,0,0,-0.010338,0.014926,-0.312104,-0.006578,0.061202,0.007417,0.0804,-2.4800,17.2377
13931,11.0,-0.006699,0.000189,-0.311752,-0.001480,-0.002399,0.002304,-4.0387,-1.4178,-0.0001,-0.00023243,-0.00082925,-0.00005247,-0.00561107,0.01278029,-0.02217458,-0.1993,0.6932,-9.6910,0.005059,0.006725,0.005101,26.8906,16.5098,33.6455,-3.5565,0.3130,119,0,0,-0.010350,0.014945,-0.312023,-0.006609,0.060946,0.009191,0.0370,-2.4678,17.3039
13942,11.0,-0.006743,0.000186,-0.311603,-0.001681,-0.002473,0.004222,-4.0382,-1.4092,0.0000,-0.00024597,-0.00084509,-0.00005329,-0.00561808,0.01280350,-0.02257908,-0.2362,0.6687,-9.7639,-0.001779,0.009485,0.004696,26.8906,16.5098,33.6455,-3.5565,0.3130,119,0,0,-0.010383,0.014972,-0.311769,-0.006557,0.061088,0.012671,0.0412,-2.4641,17.3887
13953,11.0,-0.006753,0.000159,-0.311322,-0.001667,-0.002533,0.007542,-4.0501,-1.4060,0.0002,-0.00024603,-0.00083962,-0.00005297,-0.00563416,0.01285109,-0.02333141,-0.2537,0.6935,-9.7478,-0.018876,0.004510,0.011603,26.8906,16.5098,33.6455,-3.5565,0.3120,121,0,0,-0.010467,0.015001,-0.311555,-0.006980,0.060035,0.014162,0.0003,-2.4402,17.5430
13964,11.0,-0.006661,0.000127,-0.311144,-0.000202,-0.002711,0.009001,-4.0648,-1.4230,0.0011,-0.00024415,-0.00077961,-0.00004907,-0.00565166,0.01287116,-0.02364148,-0.2236,0.6906,-9.7755,-0.022815,-0.017585,0.015739,26.8906,16.5098,33.6455,-3.5565,0.3120,122,0,0,-0.010466,0.015014,-0.311409,-0.006850,0.059482,0.015340,-0.0458,-2.4298,17.6131
13975,11.0,-0.006529,0.000110,-0.311050,0.000961,-0.003761,0.008144,-4.0728,-1.4473,0.0032,-0.00025640,-0.00070472,-0.00004461,-0.00565590,0.01289048,-0.02364064,-0.2840,0.5980,-9.8911,-0.014845,-0.026348,0.018364,26.8906,16.5098,33.6455,-3.5354,0.3130,122,0,0,-0.010393,0.015046,-0.311252,-0.005850,0.059692,0.016313,-0.0556,-2.4419,17.7000
13986,11.0,-0.006415,0.000592,-0.311522,0.001667,0.001470,-0.000042,-4.0416,-1.4682,0.0065,-0.00054605,-0.00064784,-0.00003542,-0.00562780,0.01274305,-0.02186942,-0.3010,0.6593,-9.9723,-0.006013,-0.023295,0.002408,26.8906,16.5098,33.6455,-3.5354,0.3130,115,0,1,-0.010180,0.015150,-0.311853,-0.003400,0.058370,0.006582,-0.1062,-2.4688,17.8603
13997,11.0,-0.006364,0.000593,-0.311525,0.002564,0.001614,-0.000660,-4.0423,-1.4770,-0.0002,-0.00053606,-0.00063187,-0.00003443,-0.00563682,0.01273645,-0.02186984,-0.2074,0.7388,-9.8593,0.000291,-0.011400,-0.003610,26.8906,16.5098,33.6455,-3.5354,0.3130,120,0,0,-0.010222,0.015636,-0.311686,-0.004149,0.062806,0.006770,-0.1069,-2.4662,17.3880
14008,11.0,-0.006343,0.001066,-0.311421,0.002955,0.007795,0.000497,-4.0194,-1.4776,0.0059,-0.00078102,-0.00063762,-0.00003083,-0.00564541,0.01273283,-0.02224205,-0.2132,0.8098,-9.8149,-0.010842,-0.002820,0.002862,26.8906,16.5098,33.6455,-3.5354,0.3120,116,0,1,-0.010279,0.016152,-0.311645,-0.004852,0.067986,0.005888,-0.1337,-2.4668,17.5247
14019,11.0,-0.006224,0.001051,-0.311262,0.004149,0.006869,0.000461,-4.0371,-1.4968,-0.0011,-0.00072506,-0.00059105,-0.00002844,-0.00566147,0.01276277,-0.02276849,-0.2417,0.7320,-9.9805,-0.017732,-0.023050,0.012085,27.2884,16.8626,34.0821,-3.5354,0.3120,108,0,0,-0.010381,0.016609,-0.311496,-0.005947,0.072607,0.007181,-0.1289,-2.4700,17.6081
14030,11.0,-0.006141,0.001048,-0.311184,0.004347,0.005928,-0.001103,-4.0479,-1.5078,-0.0006,-0.00068223,-0.00057020,-0.00002778,-0.00566762,0.01278218,-0.02305311,-0.2889,0.7143,-10.0407,-0.009006,-0.015491,0.018884,27.2884,16.8626,34.0821,-3.5354,0.3120,111,0,0,-0.010288,0.016664,-0.311431,-0.004870,0.071299,0.006237,-0.1795,-2.4743,17.6785
14041,11.0,-0.006353,0.000548,-0.311203,0.001256,-0.001015,-0.002327,-4.0932,-1.4588,-0.0072,-0.00037765,-0.00070957,-0.00004315,-0.00565666,0.01279749,-0.02305207,-0.2841,0.6538,-9.9198,-0.013582,0.049614,0.010245,27.2884,16.8626,34.0821,-3.5354,0.3130,109,0,-1,-0.010078,0.016313,-0.312086,-0.003206,0.063581,-0.005082,-0.2554,-2.4733,17.8515
14052,11.0,-0.007139,0.000550,-0.311632,-0.007693,-0.002136,-0.006291,-4.0931,-1.3645,-0.0122,-0.00038821,-0.00114195,-0.00006922,-0.00560897,0.01271598,-0.02176152,-0.2519,0.5859,-9.7449,-0.002453,0.065067,0.002734,27.2884,16.8626,34.0821,-3.5565,0.3130,109,-1,0,-0.010699,0.016135,-0.312141,-0.010547,0.060058,-0.005723,-0.2641,-2.4195,17.9524
14064,12.0,-0.007397,0.000571,-0.311688,-0.009441,-0.003094,-0.003031,-4.0784,-1.3188,-0.0026,-0.00042046,-0.00123130,-0.00007376,-0.00559990,0.01274809,-0.02175860,-0.2230,0.5610,-9.5427,0.014680,0.050214,-0.008049,27.2884,16.8626,34.0821,-3.5565,0.3130,105,0,0,-0.011212,0.016046,-0.312103,-0.013750,0.055775,-0.001480,-0.2935,-2.3270,18.1082
14075,11.0,-0.007508,0.000588,-0.311588,-0.009554,-0.004548,0.000250,-4.0685,-1.3054,0.0005,-0.00045407,-0.00123497,-0.00007332,-0.00560787,0.01276724,-0.02215637,-0.2308,0.5027,-9.6537,0.008465,0.020632,-0.016644,27.2884,16.8626,34.0821,-3.5565,0.3130,108,0,0,-0.011425,0.016037,-0.311912,-0.014908,0.053824,0.003711,-0.3078,-2.2865,18.1710
14086,11.0,-0.007572,0.000577,-0.311884,-0.009415,-0.005681,-0.003174,-4.0703,-1.2998,0.0031,-0.00048262,-0.00121151,-0.00007222,-0.00558261,0.01274511,-0.02122358,-0.2607,0.5557,-9.8133,-0.009727,0.013215,-0.013919,27.2884,16.8626,34.0821,-3.5565,0.3130,108,0,0,-0.011537,0.016050,-0.312436,-0.014709,0.052248,-0.000155,-0.2851,-2.2636,17.7098
14097,11.0,-0.007159,0.000018,-0.311823,-0.003494,-0.011443,-0.001629,-4.1303,-1.3195,0.0115,-0.00022005,-0.00093812,-0.00006450,-0.00563011,0.01279715,-0.02152436,-0.2128,0.6858,-9.7672,-0.045031,0.021915,-0.016931,27.2884,16.8626,34.0821,-3.5565,0.3130,105,1,-1,-0.011651,0.016043,-0.312297,-0.013825,0.049977,0.002383,-0.3241,-2.2410,17.8375
14108,11.0,-0.007264,-0.000055,-0.311835,-0.004029,-0.010212,-0.000478,-4.1543,-1.2976,-0.0013,-0.00024535,-0.00097400,-0.00006586,-0.00562621,0.01278387,-0.02152495,-0.2089,0.7737,-9.6950,-0.043645,0.028097,-0.017861,26.5008,16.4949,33.6915,-3.5565,0.3130,108,0,0,-0.011151,0.015702,-0.312271,-0.007310,0.046048,0.003452,-0.3973,-2.2340,17.8895
14119,11.0,-0.007315,-0.000096,-0.311905,-0.004207,-0.008216,-0.000576,-4.1609,-1.2891,0.0008,-0.00027972,-0.00097751,-0.00006555,-0.00562145,0.01276775,-0.02131118,-0.2359,0.8337,-9.7311,-0.017771,0.012874,-0.014329,26.5008,16.4949,33.6915,-3.5565,0.3130,111,0,0,-0.011278,0.015611,-0.312438,-0.008909,0.047361,0.003942,-0.4709,-2.1959,18.0114
14130,11.0,-0.007277,-0.000127,-0.311907,-0.003161,-0.006424,0.000214,-4.1656,-1.2988,0.0010,-0.00030632,-0.00093358,-0.00006203,-0.00563012,0.01274798,-0.02131309,-0.2151,0.8288,-9.7237,-0.012750,-0.007677,-0.000989,26.5008,16.4949,33.6915,-3.5565,0.3130,112,0,0,-0.011284,0.015617,-0.312394,-0.009202,0.048952,0.004921,-0.4722,-2.1957,18.0832
14141,11.0,-0.007246,-0.000161,-0.311775,-0.002252,-0.004905,0.003398,-4.1741,-1.3052,0.0003,-0.00032169,-0.00090007,-0.00005929,-0.00564414,0.01276523,-0.02169663,-0.2070,0.8211,-9.6371,-0.016575,-0.005228,0.010571,26.5008,16.4949,33.6915,-3.5565,0.3130,116,0,0,-0.011255,0.015635,-0.312185,-0.008830,0.050090,0.007903,-0.5141,-2.1927,18.1429
14152,11.0,-0.007206,-0.000184,-0.311379,-0.001407,-0.004097,0.009718,-4.1799,-1.3130,-0.0001,-0.00033540,-0.00086705,-0.00005643,-0.00567343,0.01281507,-0.02276086,-0.2122,0.7562,-9.5900,-0.011694,-0.007672,0.010894,26.5008,16.4949,33.6915,-3.5565,0.3120,120,0,0,-0.011225,0.015644,-0.312098,-0.008639,0.051398,0.009837,-0.5229,-2.1970,18.2266
14163,11.0,-0.007143,-0.000166,-0.311170,-0.000551,-0.003781,0.012585,-4.1655,-1.3274,0.0008,-0.00036925,-0.00082635,-0.00005287,-0.00568869,0.01282474,-0.02305514,-0.2290,0.6783,-9.6473,0.016231,-0.016530,0.011430,26.5008,16.4949,33.6915,-3.5565,0.3120,122,0,0,-0.011149,0.015703,-0.311593,-0.007875,0.052386,0.017578,-0.5638,-2.2026,18.3786
14174,11.0,-0.007053,-0.000141,-0.311030,0.000067,-0.004024,0.012802,-4.1486,-1.3471,0.0018,-0.00040750,-0.00077519,-0.00004888,-0.00569161,0.01283235,-0.02305555,-0.2763,0.6284,-9.7907,0.018876,-0.021999,0.001310,26.5008,16.4949,33.6915,-3.5565,0.3130,122,0,0,-0.011108,0.015764,-0.311407,-0.007321,0.052293,0.019802,-0.5839,-2.2056,18.4488
14185,11.0,-0.006910,-0.000138,-0.311474,0.001495,-0.004877,0.005207,-4.1440,-1.3752,0.0018,-0.00043630,-0.00070219,-0.00004357,-0.00567690,0.01271141,-0.02129117,-0.2530,0.5946,-9.8944,0.001097,-0.031064,-0.002811,26.5008,16.4949,33.6915,-3.5565,0.3130,120,0,0,-0.010935,0.015928,-0.311864,-0.005567,0.051619,0.012491,-0.5718,-2.2316,18.0655
14196,11.0,-0.006792,-0.000155,-0.311421,0.003520,-0.004908,0.004395,-4.1478,-1.3969,0.0009,-0.00045640,-0.00065352,-0.00003987,-0.00570154,0.01271258,-0.02129136,-0.1568,0.6850,-9.8815,-0.010737,-0.024785,-0.010903,26.5008,16.4949,33.6915,-3.5565,0.3130,126,0,0,-0.010815,0.016002,-0.311627,-0.004149,0.051222,0.013489,-0.5681,-2.2537,18.1406
14208,12.0,-0.006735,-0.000205,-0.311252,0.004362,-0.004821,0.004761,-4.1677,-1.4023,0.0003,-0.00046105,-0.00064785,-0.00003944,-0.00570869,0.01273679,-0.02167443,-0.1871,0.7275,-9.8955,-0.030325,-0.007150,-0.005730,26.8933,17.2228,32.8412,-3.5565,0.3110,119,0,0,-0.010623,0.016092,-0.311364,-0.000952,0.051682,0.013030,-0.6053,-2.2726,18.2671
14219,11.0,-0.006696,-0.000287,-0.310582,0.004907,-0.005468,0.010978,-4.2068,-1.4007,-0.0011,-0.00044717,-0.00065501,-0.00003982,-0.00574640,0.01286402,-0.02354680,-0.1847,0.7005,-9.8939,-0.059671,0.000688,-0.002137,26.8933,17.2228,32.8412,-3.5565,0.3110,115,0,0,-0.010566,0.016094,-0.310838,-0.000461,0.051461,0.016923,-0.6548,-2.2650,18.3252
14230,11.0,-0.007203,-0.000361,-0.310370,-0.000980,-0.006004,0.011769,-4.2413,-1.3573,-0.0033,-0.00044063,-0.00094081,-0.00005933,-0.00571568,0.01288357,-0.02383218,-0.2116,0.6986,-9.8364,-0.054095,0.011500,-0.004648,26.8933,17.2228,32.8412,-3.5565,0.3110,125,-1,0,-0.010516,0.016065,-0.310671,-0.000075,0.050970,0.016628,-0.6881,-2.2631,18.4018
14241,11.0,-0.007276,-0.000396,-0.310239,-0.001282,-0.005773,0.011984,-4.2526,-1.3417,0.0004,-0.00045681,-0.00097379,-0.00006148,-0.00571695,0.01288188,-0.02383192,-0.1997,0.7256,-9.7865,-0.021880,0.018326,-0.015232,26.8933,17.2228,32.8412,-3.5565,0.3140,121,0,0,-0.010951,0.015853,-0.310192,-0.005140,0.048018,0.018744,-0.7715,-2.2197,18.5451
14252,11.0,-0.007312,-0.000411,-0.311639,-0.001107,-0.005338,-0.005423,-4.2523,-1.3346,0.0014,-0.00048347,-0.00098837,-0.00006247,-0.00566279,0.01258033,-0.01925671,-0.1931,0.7267,-9.7804,-0.006131,0.008104,-0.018333,26.8933,17.2228,32.8412,-3.5565,0.3140,118,0,0,-0.011006,0.015834,-0.312265,-0.005634,0.047502,-0.004735,-0.8155,-2.1965,18.6004
14263,11.0,-0.007298,-0.000411,-0.311699,-0.000788,-0.005004,-0.005485,-4.2461,-1.3389,0.0016,-0.00051377,-0.00097491,-0.00006142,-0.00566428,0.01257943,-0.01925725,-0.2323,0.7100,-9.8075,0.002804,-0.003879,-0.016330,26.8933,17.2228,32.8412,-3.5565,0.3140,117,0,0,-0.011067,0.015855,-0.312238,-0.005858,0.047674,-0.002472,-0.8429,-2.1755,18.7191
14274,11.0,-0.007263,-0.000430,-0.311648,0.000019,-0.004291,-0.004435,-4.2494,-1.3456,0.0008,-0.00053077,-0.00095420,-0.00005980,-0.00566998,0.01260034,-0.01960318,-0.2037,0.7711,-9.8247,-0.009298,-0.006646,-0.009230,26.8933,17.2228,32.8412,-3.5354,0.3120,118,0,0,-0.011057,0.015886,-0.312116,-0.005872,0.048018,-0.000464,-0.8389,-2.1776,18.7865
14285,11.0,-0.007242,-0.000479,-0.311344,0.000208,-0.003678,-0.000129,-4.2689,-1.3470,-0.0004,-0.00052763,-0.00094271,-0.00005884,-0.00567892,0.01266113,-0.02064646,-0.2404,0.7982,-9.7734,-0.030961,-0.000163,-0.006845,26.8933,17.2228,32.8412,-3.5354,0.3120,113,0,0,-0.011028,0.015911,-0.311893,-0.005499,0.048416,0.002256,-0.8572,-2.1701,18.3290
14297,12.0,-0.007112,-0.000524,-0.311259,0.001846,-0.002876,0.000557,-4.2871,-1.3712,-0.0021,-0.00052424,-0.00087969,-0.00005333,-0.00568725,0.01268053,-0.02091790,-0.2179,0.8178,-9.8268,-0.026193,-0.024474,0.001102,26.8933,17.2228,32.8412,-3.5354,0.3120,110,0,0,-0.010952,0.015905,-0.311722,-0.005324,0.049132,0.004892,-0.9249,-2.1652,18.4600
14308,11.0,-0.006946,-0.000556,-0.311260,0.003427,-0.001863,-0.000776,-4.2987,-1.4004,-0.0036,-0.00052030,-0.00080732,-0.00004645,-0.00569107,0.01266696,-0.02091976,-0.2472,0.8531,-9.9141,-0.018072,-0.032506,-0.000448,26.1111,16.4800,34.5651,-3.5354,0.3150,113,0,0,-0.010837,0.015931,-0.311673,-0.004348,0.050017,0.005195,-0.9404,-2.1807,18.5350
14319,11.0,-0.006847,-0.000585,-0.312712,0.003710,-0.001453,-0.018653,-4.3107,-1.4140,-0.0017,-0.00051471,-0.00077819,-0.00004366,-0.00565613,0.01235467,-0.01671668,-0.2865,0.8049,-9.9169,-0.018193,-0.017432,0.003659,26.1111,16.4800,34.5651,-3.5354,0.3150,113,0,0,-0.010574,0.016016,-0.313543,-0.003183,0.051596,-0.015196,-1.0006,-2.2106,18.6732
14330,11.0,-0.006849,-0.000600,-0.312921,0.003070,-0.001293,-0.019324,-4.3168,-1.4091,0.0012,-0.00051411,-0.00079884,-0.00004575,-0.00565210,0.01235009,-0.01671684,-0.2647,0.7694,-9.8553,-0.010181,0.003022,-0.001996,26.1111,16.4800,34.5651,-3.5354,0.3150,113,0,0,-0.010523,0.016035,-0.313700,-0.003698,0.051335,-0.015900,-1.0437,-2.2104,18.7406
14341,11.0,-0.006856,-0.000589,-0.313018,0.002484,-0.000932,-0.017693,-4.3087,-1.4059,0.0014,-0.00052640,-0.00081809,-0.00004749,-0.00565518,0.01237714,-0.01705884,-0.2596,0.7564,-9.7699,0.009702,0.000878,-0.008145,26.1111,16.4800,34.5651,-3.5354,0.3120,107,0,0,-0.010524,0.016050,-0.313715,-0.004507,0.051145,-0.014409,-1.0487,-2.2068,18.8192
14352,11.0,-0.006854,-0.000090,-0.312019,0.002168,0.004138,-0.003549,-4.2738,-1.4046,0.0075,-0.00077971,-0.00082948,-0.00004488,-0.00569773,0.01265569,-0.02052212,-0.2489,0.6885,-9.7636,0.002294,-0.000095,-0.006037,26.1111,16.4800,34.5651,-3.5354,0.3120,105,0,1,-0.010699,0.016541,-0.312487,-0.007305,0.055121,0.002141,-1.0494,-2.1950,18.9545
14363,11.0,-0.006872,-0.000090,-0.311968,0.002029,0.002445,-0.001914,-4.2804,-1.3983,0.0002,-0.00076102,-0.00085095,-0.00004703,-0.00569967,0.01267935,-0.02078202,-0.2126,0.6248,-9.7555,-0.007713,0.005337,-0.009089,26.1111,16.4800,34.5651,-3.5354,0.3120,115,0,0,-0.010856,0.017004,-0.312462,-0.009008,0.058463,0.003081,-1.0576,-2.1867,19.0155
14375,12.0,-0.006884,-0.000097,-0.311989,0.001674,0.000918,-0.001545,-4.2900,-1.3924,0.0003,-0.00074785,-0.00086842,-0.00004880,-0.00569774,0.01269886,-0.02078023,-0.2405,0.6423,-9.7774,-0.012612,0.005134,-0.008170,26.1111,16.4800,34.5651,-3.5354,0.3150,115,0,0,-0.010873,0.017034,-0.312427,-0.008573,0.056438,0.004086,-1.0622,-2.1831,19.0911
14386,11.0,-0.006869,-0.000614,-0.313048,0.001563,-0.005195,-0.014292,-4.3310,-1.3926,-0.0065,-0.00049245,-0.00087004,-0.00005287,-0.00564819,0.01247086,-0.01779521,-0.2530,0.7274,-9.8759,-0.012909,-0.000942,-0.013116,26.1111,16.4800,34.5651,-3.5354,0.3150,112,0,-1,-0.010880,0.017080,-0.313790,-0.007807,0.052835,-0.009021,-1.0877,-2.1692,18.6989
14398,12.0,-0.006879,-0.000682,-0.313228,0.001416,-0.004902,-0.015693,-4.3598,-1.3843,0.0002,-0.00048845,-0.00088473,-0.00005414,-0.00564831,0.01246439,-0.01779545,-0.2310,0.7933,-9.9113,-0.041705,0.008781,-0.003231,26.1111,16.4800,34.5651,-3.5354,0.3150,107,0,0,-0.010720,0.016654,-0.313849,-0.006370,0.046810,-0.008236,-1.1554,-2.1581,18.8361
14409,11.0,-0.006885,-0.000748,-0.313266,0.001274,-0.004348,-0.015537,-4.3882,-1.3772,0.0002,-0.00048064,-0.00089503,-0.00005521,-0.00565552,0.01249831,-0.01821492,-0.2371,0.8352,-9.9308,-0.043799,0.007758,0.004691,26.8960,16.4949,33.6915,-3.6041,0.3120,108,0,0,-0.010721,0.016624,-0.312613,-0.006407,0.046446,0.005562,-1.2076,-2.1437,18.8996
14420,11.0,-0.006382,-0.000783,-0.312093,0.006375,-0.003501,-0.001449,-4.4005,-1.4056,-0.0124,-0.00048424,-0.00066005,-0.00003197,-0.00571978,0.01279876,-0.02205948,-0.2755,0.8408,-9.9200,-0.020612,0.002856,0.013209,26.8960,16.4949,33.6915,-3.6041,0.3120,109,1,0,-0.010718,0.016595,-0.312451,-0.006822,0.046561,0.005963,-1.2316,-2.1370,18.9810
14431,11.0,-0.006400,-0.000783,-0.312009,0.005202,-0.003481,-0.001446,-4.3967,-1.3958,0.0025,-0.00050404,-0.00070159,-0.00003564,-0.00572668,0.01282452,-0.02237455,-0.2678,0.7344,-9.9182,0.001514,0.005329,0.010925,26.8960,16.4949,33.6915,-3.6041,0.3120,110,0,0,-0.010298,0.016743,-0.312174,-0.003808,0.048135,0.006469,-1.2812,-2.1372,19.1286
14442,11.0,-0.006459,-0.000767,-0.312027,0.004275,-0.003525,-0.001703,-4.3849,-1.3803,0.0030,-0.00053207,-0.00075779,-0.00004042,-0.00573206,0.01283218,-0.02237393,-0.2106,0.7043,-9.8296,0.012380,0.011592,0.005791,26.8960,16.4949,33.6915,-3.6041,0.3140,108,0,0,-0.010326,0.016768,-0.312114,-0.004702,0.047305,0.005830,-1.3024,-2.1260,19.2042
14453,11.0,-0.006556,-0.000735,-0.312481,0.003439,-0.003675,-0.006021,-4.3651,-1.3597,0.0036,-0.00056784,-0.00082784,-0.00004626,-0.00570610,0.01272767,-0.02113078,-0.1671,0.6679,-9.7417,0.023250,0.017629,-0.006599,26.8960,16.4949,33.6915,-3.6041,0.3140,114,0,0,-0.010383,0.016793,-0.313120,-0.005347,0.046687,-0.005205,-1.2955,-2.1160,19.2887
14464,11.0,-0.006641,-0.000685,-0.312540,0.002949,-0.003653,-0.004716,-4.3350,-1.3436,0.0030,-0.00061396,-0.00088865,-0.00005084,-0.00571991,0.01274260,-0.02112979,-0.1515,0.6558,-9.6908,0.037048,0.012764,-0.013433,26.8960,16.4949,33.6915,-3.6041,0.3140,119,0,0,-0.010424,0.016422,-0.313071,-0.004610,0.040419,-0.001327,-1.2977,-2.0797,19.4299
14475,11.0,-0.006689,-0.000661,-0.312447,0.002936,-0.003340,-0.001801,-4.3178,-1.3336,0.0026,-0.00064507,-0.00092873,-0.00005414,-0.00572443,0.01277196,-0.02153228,-0.1477,0.7070,-9.6902,0.019806,0.007403,-0.013201,26.8960,16.4949,33.6915,-3.6041,0.3120,118,0,0,-0.010506,0.016465,-0.312241,-0.004979,0.040342,0.009355,-1.2910,-2.0606,19.4861
14486,11.0,-0.006733,-0.000653,-0.311684,0.002793,-0.003178,0.008283,-4.3095,-1.3235,0.0016,-0.00066652,-0.00096578,-0.00005702,-0.00576802,0.01294690,-0.02371500,-0.1644,0.7116,-9.7031,0.007480,0.008301,-0.011222,26.8960,16.4949,33.6915,-3.6041,0.3120,127,0,0,-0.010564,0.016497,-0.312140,-0.005033,0.040846,0.010926,-1.2584,-2.0535,19.0003
14497,11.0,-0.006751,-0.000648,-0.311524,0.002388,-0.002959,0.008571,-4.3024,-1.3179,0.0016,-0.00068605,-0.00098897,-0.00005896,-0.00576907,0.01296127,-0.02392786,-0.2199,0.7315,-9.8585,0.006239,0.003665,-0.010296,26.8960,16.4949,33.6915,-3.4878,0.3120,126,0,0,-0.010620,0.016541,-0.311778,-0.005400,0.041266,0.014978,-1.2669,-2.0350,19.1259
14508,11.0,-0.006786,-0.000670,-0.311437,0.001371,-0.002851,0.007203,-4.3106,-1.3075,0.0012,-0.00069041,-0.00101598,-0.00006139,-0.00576114,0.01295776,-0.02392812,-0.2671,0.7581,-9.9270,-0.014854,0.010602,-0.010380,27.2911,16.4949,34.1052,-3.4878,0.3140,126,0,0,-0.010643,0.016562,-0.311631,-0.005894,0.041254,0.014753,-1.2857,-2.0252,19.1832
14519,11.0,-0.006900,-0.000724,-0.312208,-0.000083,-0.001915,-0.003226,-4.3329,-1.2801,0.0022,-0.00067822,-0.00107655,-0.00006721,-0.00573205,0.01277904,-0.02155872,-0.2329,0.8677,-9.8523,-0.033655,0.029887,-0.008206,27.2911,16.4949,34.1052,-3.4878,0.3140,122,0,0,-0.010709,0.016526,-0.312848,-0.007886,0.041384,-0.001004,-1.3373,-2.0010,19.3143
14530,11.0,-0.007010,-0.000753,-0.312241,-0.001673,-0.000837,-0.002767,-4.3437,-1.2566,0.0028,-0.00067066,-0.00112512,-0.00007233,-0.00572383,0.01276516,-0.02155921,-0.2611,0.8634,-9.7500,-0.016366,0.026487,-0.008668,27.2911,16.4949,34.1052,-3.4878,0.3140,126,0,0,-0.010800,0.016473,-0.312857,-0.009411,0.041846,-0.000856,-1.3544,-1.9800,19.3883
14541,11.0,-0.007052,-0.000750,-0.312171,-0.001845,0.000441,-0.000656,-4.3386,-1.2499,0.0009,-0.00067300,-0.00113602,-0.00007352,-0.00572583,0.01278642,-0.02183204,-0.2102,0.8595,-9.7044,0.006873,0.007666,-0.005785,27.2911,16.4949,34.1052,-3.4878,0.3120,128,0,0,-0.010890,0.016438,-0.312178,-0.010951,0.042049,0.007615,-1.3925,-1.9580,19.4506
14552,11.0,-0.007033,-0.000728,-0.311555,-0.000967,0.001784,0.007711,-4.3249,-1.2567,-0.0018,-0.00067655,-0.00111899,-0.00007128,-0.00574995,0.01291090,-0.02354210,-0.1743,0.8583,-9.6815,0.020187,-0.007923,-0.002252,27.2911,16.4949,34.1052,-3.4878,0.3120,128,0,0,-0.010950,0.016480,-0.311907,-0.011452,0.043655,0.011724,-1.4083,-1.9449,19.5847
14563,11.0,-0.007037,-0.000715,-0.311394,-0.000259,0.002744,0.009242,-4.3174,-1.2573,-0.0005,-0.00067110,-0.00111732,-0.00007107,-0.00575206,0.01292976,-0.02375083,-0.1588,0.8473,-9.7376,0.012514,-0.001937,0.005199,27.2911,16.4949,34.1052,-3.4878,0.3120,120,0,0,-0.010100,0.016828,-0.311782,-0.001557,0.048443,0.013328,-1.3954,-1.9775,19.6313
14574,11.0,-0.007017,-0.000696,-0.311296,0.000804,0.002928,0.008550,-4.3099,-1.2617,-0.0018,-0.00066456,-0.00110972,-0.00006979,-0.00576313,0.01292330,-0.02375099,-0.1440,0.7866,-9.8656,0.012796,-0.007075,0.006135,27.2911,16.4949,34.1052,-3.5829,0.3140,120,0,0,-0.010099,0.016868,-0.311644,-0.002032,0.048841,0.014566,-1.4164,-1.9675,19.6973
14585,11.0,-0.007018,-0.000688,-0.312124,0.001211,0.004025,-0.002600,-4.3065,-1.2600,-0.0002,-0.00064909,-0.00111711,-0.00007065,-0.00574342,0.01268908,-0.02122435,-0.1716,0.8851,-9.8422,0.008887,-0.001210,0.010819,27.2911,16.4949,34.1052,-3.5829,0.3140,113,0,0,-0.010073,0.016962,-0.312810,-0.001920,0.049216,0.000585,-1.4163,-1.9618,19.2769
14596,11.0,-0.007078,-0.000667,-0.312152,0.001061,0.004721,-0.002565,-4.2984,-1.2474,0.0026,-0.00063518,-0.00115179,-0.00007486,-0.00574791,0.01267631,-0.02122440,-0.1575,0.8418,-9.7923,0.015510,0.010290,0.011619,27.2911,16.4949,34.1052,-3.5829,0.3140,118,0,0,-0.010074,0.016997,-0.312663,-0.002599,0.049955,0.002290,-1.4107,-1.9593,19.3597
14607,11.0,-0.007595,-0.000635,-0.312047,-0.004630,0.005200,-0.000352,-4.2848,-1.2121,0.0278,-0.00062527,-0.00138768,-0.00010642,-0.00572982,0.01271174,-0.02158754,-0.2004,0.8101,-9.7363,0.023227,0.002195,0.015362,27.2911,16.4949,34.1052,-3.5829,0.3120,118,-1,0,-0.010587,0.016904,-0.312077,-0.009227,0.048469,0.009149,-1.4238,-1.9193,19.5276
14618,11.0,-0.007558,-0.001098,-0.311513,-0.003794,-0.000398,0.006154,-4.3049,-1.2237,-0.0199,-0.00039350,-0.00134719,-0.00009966,-0.00572964,0.01288903,-0.02304151,-0.2268,0.7605,-9.7718,0.018018,-0.011746,0.017302,26.8933,17.9432,34.4958,-3.5829,0.3120,110,0,-1,-0.011035,0.016805,-0.311874,-0.014216,0.046686,0.011466,-1.4360,-1.8982,19.6141
14629,11.0,-0.007529,-0.001109,-0.311345,-0.003272,-0.000746,0.007455,-4.3108,-1.2301,-0.0035,-0.00039158,-0.00131498,-0.00009561,-0.00573289,0.01291960,-0.02332253,-0.2408,0.7218,-9.7950,-0.009030,-0.005743,0.017875,26.8933,17.9432,34.4958,-3.5829,0.3120,110,0,0,-0.010867,0.016440,-0.311756,-0.011906,0.041969,0.012324,-1.4394,-1.9057,19.6973
14640,11.0,-0.007549,-0.001133,-0.311263,-0.003628,-0.001044,0.007479,-4.3231,-1.2259,-0.0008,-0.00038484,-0.00130608,-0.00009478,-0.00572472,0.01292062,-0.02332266,-0.2681,0.7382,-9.8009,-0.018236,0.006717,0.008724,26.8933,17.9432,34.4958,-3.5829,0.3130,108,0,0,-0.010831,0.016486,-0.312154,-0.011049,0.041186,0.005948,-1.4718,-1.9069,19.8525
14651,11.0,-0.007645,-0.001143,-0.311569,-0.004423,-0.001096,0.003110,-4.3270,-1.2081,0.0023,-0.00038490,-0.00133066,-0.00009770,-0.00572032,0.01280804,-0.02227079,-0.2322,0.7440,-9.7917,-0.006332,0.021042,0.003280,26.8933,17.9432,34.4958,-3.5829,0.3130,108,0,0,-0.010856,0.016481,-0.312093,-0.011442,0.040425,0.006352,-1.5034,-1.8977,19.9239
14663,12.0,-0.007701,-0.001133,-0.311539,-0.004149,-0.001282,0.001921,-4.3201,-1.2006,0.0007,-0.00039626,-0.00133302,-0.00009789,-0.00572346,0.01280996,-0.02227075,-0.1871,0.7213,-9.9044,0.007512,0.008781,0.003954,26.8933,17.9432,34.4958,-3.5829,0.3130,113,0,0,-0.010995,0.016475,-0.311813,-0.012251,0.039553,0.008194,-1.5253,-1.8690,20.0678
14674,11.0,-0.007734,-0.001094,-0.311388,-0.003384,0.000071,0.003021,-4.2959,-1.1995,0.0009,-0.00041781,-0.00132932,-0.00009752,-0.00572557,0.01284604,-0.02263824,-0.1510,0.8289,-9.8413,0.033201,0.000869,0.006100,26.8933,17.9432,34.4958,-3.5829,0.3130,109,0,0,-0.011043,0.016507,-0.312239,-0.012140,0.039619,0.002359,-1.5129,-1.8650,20.1439
14685,11.0,-0.007802,-0.001054,-0.311742,-0.002680,0.001802,-0.001431,-4.2720,-1.1909,0.0018,-0.00043013,-0.00134594,-0.00009931,-0.00573205,0.01272126,-0.02160253,-0.1104,0.8724,-9.7942,0.035454,0.007579,0.010031,26.8933,17.9432,34.4958,-3.5829,0.3130,104,0,0,-0.011090,0.016551,-0.312215,-0.011900,0.040596,0.002402,-1.5071,-1.8573,19.7031
14696,11.0,-0.007882,-0.001048,-0.311651,-0.002455,0.002953,0.000987,-4.2683,-1.1762,0.0019,-0.00042112,-0.00136991,-0.00010229,-0.00573067,0.01275044,-0.02187993,-0.1307,0.8609,-9.6840,0.007762,0.014914,0.023817,26.8933,17.9432,34.4958,-3.5829,0.3130,104,0,0,-0.011227,0.016625,-0.311992,-0.011952,0.043374,0.005532,-1.4959,-1.8354,19.8489
14707,11.0,-0.007926,-0.001054,-0.311632,-0.002518,0.002933,0.002539,-4.2747,-1.1666,-0.0007,-0.00040311,-0.00137745,-0.00010294,-0.00573052,0.01274685,-0.02187978,-0.1923,0.7717,-9.6592,-0.005701,0.009595,0.036478,25.7079,16.5023,34.9095,-3.5248,0.3130,113,0,0,-0.010874,0.016778,-0.311927,-0.007493,0.045728,0.007461,-1.4949,-1.8372,19.9256
14718,11.0,-0.007834,-0.001060,-0.311789,-0.002302,0.001002,-0.000090,-4.2848,-1.1830,-0.0051,-0.00038969,-0.00132354,-0.00009677,-0.00573579,0.01269893,-0.02139546,-0.3142,0.6024,-9.8587,-0.012816,-0.017650,0.028999,25.7079,16.5023,34.9095,-3.5248,0.3130,110,0,0,-0.010862,0.016823,-0.312296,-0.008029,0.043487,0.004788,-1.5295,-1.8278,20.1021
14729,11.0,-0.007773,-0.001074,-0.311796,-0.001826,-0.000504,-0.001124,-4.2957,-1.1937,-0.0018,-0.00038298,-0.00128520,-0.00009329,-0.00572850,0.01272021,-0.02139466,-0.2562,0.6337,-9.9036,-0.015965,-0.010883,0.016725,25.7079,16.5023,34.9095,-3.5248,0.3130,112,0,0,-0.010785,0.016865,-0.312250,-0.007615,0.041720,0.004523,-1.5545,-1.8372,20.1851
14740,11.0,-0.007844,-0.001075,-0.311701,-0.002376,-0.000810,-0.000095,-4.2959,-1.1804,0.0012,-0.00038612,-0.00130648,-0.00009537,-0.00572732,0.01274858,-0.02169065,-0.2100,0.7145,-9.8282,-0.001448,0.015034,0.001303,25.7079,16.5023,34.9095,-3.5248,0.3130,113,0,0,-0.010744,0.016891,-0.312060,-0.007327,0.040389,0.005731,-1.5621,-1.8414,20.2668
14751,11.0,-0.007884,-0.001054,-0.311896,-0.002498,-0.000150,-0.002157,-4.2825,-1.1752,0.0009,-0.00039770,-0.00131260,-0.00009595,-0.00572535,0.01269221,-0.02117695,-0.2042,0.7774,-9.7828,0.018326,0.005442,-0.001358,25.7079,16.5023,34.9095,-3.5248,0.3130,111,0,0,-0.010860,0.016906,-0.312337,-0.008891,0.039279,0.002650,-1.5747,-1.8164,20.4106
14762,11.0,-0.007828,-0.001030,-0.311838,-0.001659,0.000686,-0.001494,-4.2681,-1.1893,-0.0017,-0.00040729,-0.00127732,-0.00009229,-0.00572888,0.01271222,-0.02140551,-0.2154,0.8006,-9.8280,0.020412,-0.015571,-0.000167,25.7079,16.5023,34.9095,-3.5248,0.3130,113,0,0,-0.010886,0.016945,-0.312309,-0.009282,0.039660,0.003099,-1.5842,-1.8100,20.4735
14773,11.0,-0.007717,-0.000505,-0.311856,-0.000136,0.006749,-0.001792,-4.2224,-1.2135,0.0073,-0.00062430,-0.00122303,-0.00008638,-0.00573667,0.01268545,-0.02141109,-0.2016,0.7777,-9.8269,0.023410,-0.028160,0.006936,25.7079,16.5023,34.9095,-3.5248,0.3130,125,0,1,-0.011010,0.017428,-0.312276,-0.010891,0.045259,0.003361,-1.5574,-1.8188,20.5443
14784,11.0,-0.007647,-0.000461,-0.311928,0.000637,0.006534,-0.003112,-4.2060,-1.2292,-0.0024,-0.00061134,-0.00119324,-0.00008333,-0.00573743,0.01267559,-0.02128574,-0.2163,0.7512,-9.8713,0.028363,-0.019266,-0.000996,25.7079,16.5023,34.9095,-3.5248,0.3130,128,0,0,-0.011045,0.018026,-0.312449,-0.010714,0.050118,0.000982,-1.5261,-1.8454,20.1414
14795,11.0,-0.007663,-0.000456,-0.311962,0.000013,0.006576,-0.003115,-4.2093,-1.2245,-0.0006,-0.00058098,-0.00120171,-0.00008446,-0.00573103,0.01266617,-0.02128611,-0.2518,0.8073,-9.7966,0.001184,0.003866,0.006797,25.7079,16.5023,34.9095,-3.5618,0.3130,123,0,0,-0.011013,0.018105,-0.312316,-0.010361,0.049602,0.002286,-1.5348,-1.8504,20.2055
14806,11.0,-0.007698,-0.000461,-0.311874,-0.001291,0.006052,-0.001586,-4.2194,-1.2154,-0.0001,-0.00054771,-0.00121415,-0.00008621,-0.00573224,0.01269695,-0.02161400,-0.3036,0.7647,-9.7915,-0.008802,0.009898,0.008254,27.2857,17.2302,34.4727,-3.5618,0.3120,129,0,0,-0.011029,0.018137,-0.312291,-0.010984,0.049169,0.002803,-1.5332,-1.8476,20.2838
14817,11.0,-0.007743,-0.000470,-0.311452,-0.002770,0.005054,0.003478,-4.2314,-1.2055,0.0010,-0.00051705,-0.00122291,-0.00008825,-0.00572330,0.01279820,-0.02275733,-0.3251,0.7184,-9.8026,-0.012740,0.012330,0.005783,27.2857,17.2302,34.4727,-3.5618,0.3120,122,0,0,-0.011089,0.018149,-0.311772,-0.012750,0.046429,0.008446,-1.5743,-1.8306,20.4370
14828,11.0,-0.007807,-0.000461,-0.311324,-0.004119,0.004374,0.003839,-4.2323,-1.1943,0.0006,-0.00049849,-0.00123441,-0.00008990,-0.00572580,0.01282077,-0.02300909,-0.3082,0.7250,-9.8720,0.002355,0.013945,0.000907,27.2857,17.2302,34.4727,-3.5618,0.3120,128,0,0,-0.011125,0.018155,-0.311688,-0.013588,0.044756,0.008647,-1.6021,-1.8230,20.5098
14839,11.0,-0.007910,-0.000448,-0.311280,-0.005195,0.003541,0.004189,-4.2311,-1.1772,0.0015,-0.00048513,-0.00125665,-0.00009265,-0.00571584,0.01282711,-0.02300837,-0.2518,0.6917,-9.7747,0.004193,0.021261,-0.004106,27.2857,17.2302,34.4727,-3.5618,0.3130,130,0,0,-0.011174,0.018169,-0.311447,-0.014406,0.043479,0.010114,-1.6023,-1.8152,20.5861
14850,11.0,-0.008034,-0.000426,-0.311620,-0.005900,0.003397,0.001556,-4.2229,-1.1578,0.0011,-0.00047798,-0.00128368,-0.00009535,-0.00569473,0.01274267,-0.02198350,-0.2000,0.7274,-9.6275,0.014086,0.023697,-0.006816,27.2857,17.2302,34.4727,-3.5618,0.3130,122,0,0,-0.011400,0.018164,-0.312140,-0.016225,0.040956,0.003221,-1.6153,-1.7790,20.7300
14861,11.0,-0.008108,0.000076,-0.311592,-0.005777,0.008601,0.003526,-4.1929,-1.1480,0.0022,-0.00066713,-0.00128831,-0.00009169,-0.00569794,0.01271077,-0.02198713,-0.1787,0.7281,-9.6248,0.003613,0.013885,-0.007277,27.2857,17.2302,34.4727,-3.5618,0.3130,126,0,1,-0.011529,0.018162,-0.311973,-0.016861,0.040168,0.006785,-1.6266,-1.7565,20.7925
14872,11.0,-0.008132,0.000099,-0.311424,-0.005415,0.007804,0.006279,-4.1902,-1.1481,-0.0010,-0.00063818,-0.00127250,-0.00009081,-0.00570728,0.01274216,-0.02230999,-0.2066,0.7206,-9.6857,0.010139,0.002499,-0.003730,27.2857,17.2302,34.4727,-3.5618,0.3120,124,0,0,-0.011778,0.018584,-0.311893,-0.018673,0.044502,0.009064,-1.6102,-1.7444,20.8599
14883,11.0,-0.008069,0.000143,-0.311220,-0.004087,0.007737,0.008341,-4.1746,-1.1666,-0.0023,-0.00062007,-0.00122324,-0.00008653,-0.00572208,0.01276503,-0.02264825,-0.2040,0.7639,-9.7521,0.028389,-0.019228,-0.001779,27.2857,17.2302,34.4727,-3.5618,0.3120,117,0,0,-0.011838,0.018662,-0.311550,-0.017377,0.043229,0.013378,-1.6037,-1.7431,20.4359
14894,11.0,-0.007981,0.000194,-0.311038,-0.002756,0.007918,0.008943,-4.1551,-1.1896,-0.0026,-0.00060481,-0.00116938,-0.00008166,-0.00573527,0.01278748,-0.02289702,-0.2207,0.7846,-9.8472,0.033923,-0.025202,0.000019,27.2857,17.2302,34.4727,-3.5618,0.3120,117,0,0,-0.011807,0.018738,-0.311412,-0.016242,0.043191,0.014341,-1.6093,-1.7510,20.4971
14906,12.0,-0.007407,0.000207,-0.310938,0.003367,0.007860,0.007672,-4.1595,-1.2364,-0.0128,-0.00056931,-0.00092451,-0.00005812,-0.00575517,0.01278109,-0.02290155,-0.2650,0.8062,-9.9040,0.000639,-0.017322,0.003349,25.7079,17.5830,33.6685,-3.5618,0.3130,113,1,0,-0.011277,0.019077,-0.312007,-0.009375,0.045724,0.004420,-1.5954,-1.7934,20.6209
14917,11.0,-0.007311,0.000206,-0.311467,0.003428,0.006358,-0.000665,-4.1701,-1.2505,-0.0011,-0.00053522,-0.00089891,-0.00005660,-0.00572612,0.01266184,-0.02136494,-0.2768,0.6816,-9.9310,-0.009152,-0.017926,0.007123,25.7079,17.5830,33.6685,-3.5618,0.3130,117,0,0,-0.010790,0.019291,-0.311867,-0.004646,0.047377,0.004970,-1.5950,-1.8170,20.6865
14928,11.0,-0.007224,0.000198,-0.311481,0.003425,0.004653,-0.001752,-4.1829,-1.2629,0.0003,-0.00050668,-0.00087745,-0.00005601,-0.00571649,0.01267586,-0.02136444,-0.2751,0.6513,-9.9064,-0.014231,-0.015404,-0.000092,25.7079,17.5830,33.6685,-3.5618,0.3130,116,0,0,-0.010638,0.019385,-0.311783,-0.004862,0.044472,0.003557,-1.6291,-1.8326,20.8371
14939,11.0,-0.007677,0.000199,-0.311378,-0.001979,0.003408,-0.000510,-4.1885,-1.2389,0.0017,-0.00048847,-0.00107221,-0.00007124,-0.00571065,0.01270167,-0.02168096,-0.2203,0.6626,-9.8275,-0.005437,-0.007739,-0.012279,25.7079,17.5830,33.6685,-3.5618,0.3130,110,-1,0,-0.010570,0.019427,-0.312241,-0.004824,0.042824,-0.002283,-1.6536,-1.8384,20.9055
14950,11.0,-0.008171,0.000174,-0.311767,-0.006478,0.003095,-0.005276,-4.2050,-1.2103,0.0017,-0.00046234,-0.00125958,-0.00008622,-0.00568789,0.01262175,-0.02071729,-0.1501,0.7684,-9.8361,-0.020691,0.001195,-0.014762,25.7079,17.5830,33.6685,-3.5618,0.3130,109,-1,0,-0.010958,0.019299,-0.312263,-0.009526,0.039920,-0.002133,-1.6579,-1.8281,20.9825
14962,12.0,-0.008238,0.000130,-0.311727,-0.005610,0.004353,-0.003018,-4.2315,-1.1995,-0.0012,-0.00042484,-0.00125774,-0.00008641,-0.00569276,0.01264403,-0.02096777,-0.1432,0.9172,-9.6973,-0.031231,0.015625,-0.009132,25.7079,17.5830,33.6685,-3.5618,0.3130,110,0,0,-0.011367,0.019129,-0.312161,-0.013009,0.038610,0.000297,-1.7049,-1.8053,21.1117
14973,11.0,-0.008291,0.000086,-0.311760,-0.004395,0.005604,-0.002801,-4.2553,-1.1910,-0.0029,-0.00038286,-0.00125713,-0.00008586,-0.00570236,0.01262493,-0.02096884,-0.1029,0.9533,-9.7685,-0.028163,0.012977,-0.009219,25.7079,17.5830,33.6685,-3.5618,0.3130,116,0,0,-0.011399,0.019095,-0.312479,-0.012978,0.039327,-0.001918,-1.7513,-1.7887,21.1658
14984,11.0,-0.008305,0.000058,-0.311871,-0.003868,0.007163,-0.004589,-4.2716,-1.1896,-0.0035,-0.00034192,-0.00124427,-0.00008406,-0.00569921,0.01261338,-0.02078051,-0.1967,0.9928,-9.8673,-0.016665,0.004373,-0.004768,25.7079,17.5830,33.6685,-3.5618,0.3130,107,0,0,-0.011431,0.019060,-0.312394,-0.012906,0.040545,0.000237,-1.8019,-1.7702,20.7820
14995,11.0,-0.008399,0.000489,-0.311925,-0.004273,0.014795,-0.005184,-4.2801,-1.1690,0.0094,-0.00046875,-0.00126448,-0.00008746,-0.00570141,0.01257625,-0.02078325,-0.1945,1.1098,-9.8289,-0.043409,0.025582,0.014224,26.8933,17.9432,34.0821,-3.5618,0.3130,112,0,1,-0.011461,0.019029,-0.312234,-0.013753,0.043225,0.001804,-1.8155,-1.7651,20.8555
15006,11.0,-0.008557,0.000401,-0.311859,-0.005441,0.015715,-0.003766,-4.3367,-1.1338,0.0034,-0.00036415,-0.00130683,-0.00009523,-0.00570266,0.01261294,-0.02109680,-0.2012,1.0993,-9.7784,-0.065156,0.042547,0.026019,26.8933,17.9432,34.0821,-3.5618,0.3120,108,0,0,-0.011683,0.019391,-0.312218,-0.016720,0.048992,0.001707,-1.8637,-1.7431,20.9219
15017,11.0,-0.008690,0.000861,-0.311432,-0.006250,0.021302,0.001645,-4.3410,-1.1070,0.0115,-0.00046947,-0.00133473,-0.00010101,-0.00571274,0.01270443,-0.02225979,-0.1994,0.9887,-9.7819,-0.031778,0.032304,0.031001,26.8933,17.9432,34.0821,-3.4825,0.3120,116,0,1,-0.011911,0.019202,-0.311732,-0.019630,0.048956,0.007100,-1.9750,-1.6807,21.0941
15028,11.0,-0.008722,0.000841,-0.311346,-0.005719,0.020179,0.001758,-4.3729,-1.1009,-0.0088,-0.00036867,-0.00132092,-0.00009769,-0.00571167,0.01273260,-0.02244241,-0.1851,0.9217,-9.8570,-0.026376,0.009048,0.038318,26.8933,17.9432,34.0821,-3.4825,0.3130,117,0,0,-0.012174,0.019572,-0.311658,-0.022333,0.053205,0.007610,-1.9856,-1.6592,21.1860
15039,11.0,-0.008737,0.001342,-0.311329,-0.005090,0.024446,0.001249,-4.3635,-1.0990,0.0015,-0.00047169,-0.00130300,-0.00009451,-0.00571332,0.01271250,-0.02244481,-0.1853,0.8801,-9.8399,-0.009351,0.003143,0.036672,26.8933,17.9432,34.0821,-3.4825,0.3130,109,0,1,-0.012397,0.019985,-0.312117,-0.023049,0.055484,0.001345,-2.0387,-1.6418,21.3635
15050,11.0,-0.008828,0.001350,-0.311650,-0.004739,0.023268,-0.002022,-4.3847,-1.0824,-0.0035,-0.00036685,-0.00131829,-0.00009633,-0.00570902,0.01260656,-0.02161342,-0.1208,0.9184,-9.7345,-0.007921,0.019050,0.029833,26.8933,17.9432,34.0821,-3.4825,0.3130,119,0,0,-0.012427,0.020008,-0.312104,-0.022165,0.054004,0.001450,-2.0711,-1.6334,21.4457
15061,11.0,-0.008882,0.001359,-0.311671,-0.004043,0.022360,-0.001779,-4.4036,-1.0728,-0.0079,-0.00026869,-0.00132093,-0.00009455,-0.00571293,0.01259477,-0.02161361,-0.1218,0.9353,-9.7666,-0.005851,0.010631,0.035433,26.8933,17.9432,34.0821,-3.4825,0.3130,125,0,0,-0.012504,0.020007,-0.311974,-0.021658,0.053026,0.003686,-2.0813,-1.6207,21.5376
15072,11.0,-0.008863,0.001348,-0.311601,-0.003587,0.021258,-0.001250,-4.4327,-1.0748,-0.0138,-0.00016841,-0.00129704,-0.00008754,-0.00570936,0.01263758,-0.02184756,-0.2140,0.9368,-9.8394,-0.021520,-0.001706,0.042030,26.8933,17.9432,34.0821,-3.4825,0.3110,124,0,0,-0.012615,0.020011,-0.311051,-0.020728,0.051398,0.013998,-2.1271,-1.5946,21.7082
15083,11.0,-0.008825,0.001340,-0.310749,-0.002938,0.020391,0.006999,-4.4571,-1.0813,-0.0145,-0.00007900,-0.00126699,-0.00007940,-0.00569357,0.01295204,-0.02399001,-0.2141,0.9559,-9.9562,-0.017854,-0.006497,0.039819,26.8933,17.9432,34.0821,-3.4825,0.3110,128,0,0,-0.012604,0.020024,-0.310912,-0.019871,0.050509,0.013889,-2.1592,-1.5991,21.2556
15094,11.0,-0.008846,0.001332,-0.310613,-0.002968,0.020277,0.005552,-4.4806,-1.0755,-0.0075,0.00001292,-0.00126265,-0.00007717,-0.00569005,0.01297898,-0.02416933,-0.2099,1.0269,-9.9918,-0.014440,0.006142,0.038680,26.8933,17.9432,34.0821,-3.4825,0.3130,128,0,0,-0.012574,0.020046,-0.310779,-0.019239,0.049987,0.012820,-2.1755,-1.6021,21.3476
15106,12.0,-0.009021,0.001339,-0.310557,-0.004590,0.020914,0.003769,-4.5071,-1.0372,0.0093,0.00011034,-0.00131373,-0.00008879,-0.00569406,0.01294784,-0.02416961,-0.2000,1.0797,-9.9273,-0.015660,0.038749,0.052768,25.3127,16.8626,34.0821,-3.4825,0.3130,129,0,0,-0.012228,0.020210,-0.311708,-0.015282,0.051708,-0.001662,-2.2282,-1.5961,21.5069
15117,11.0,-0.009257,0.001323,-0.311264,-0.006928,0.019981,-0.005581,-4.5387,-0.9883,0.0151,0.00021207,-0.00138150,-0.00010506,-0.00571335,0.01263717,-0.02237255,-0.2124,0.9627,-9.8596,-0.022550,0.053408,0.069915,25.3127,16.8626,34.0821,-3.4825,0.3130,123,0,0,-0.012364,0.020168,-0.311642,-0.017144,0.051112,-0.001710,-2.2714,-1.5648,21.6036
15128,11.0,-0.009510,0.001807,-0.311322,-0.009265,0.023832,-0.004953,-4.5391,-0.9379,0.0253,0.00011648,-0.00144470,-0.00012181,-0.00571755,0.01262573,-0.02237249,-0.2104,0.8745,-9.7358,-0.022852,0.056872,0.073680,25.3127,16.8626,34.0821,-3.4825,0.3130,126,0,1,-0.012916,0.020444,-0.311685,-0.023151,0.052179,-0.002148,-2.3195,-1.4860,21.8326
15139,11.0,-0.009758,0.002302,-0.311277,-0.011189,0.026980,-0.002753,-4.5363,-0.8907,0.0202,0.00003116,-0.00149673,-0.00013509,-0.00572236,0.01266359,-0.02260352,-0.1945,0.8372,-9.6969,-0.015586,0.054612,0.073779,25.3127,16.8626,34.0821,-3.4825,0.3100,126,0,1,-0.013291,0.020788,-0.310337,-0.026502,0.054128,0.013496,-2.3239,-1.4462,21.9506
15150,11.0,-0.010018,0.002814,-0.310043,-0.013290,0.029770,0.013241,-4.5251,-0.8444,0.0181,-0.00005669,-0.00154352,-0.00014679,-0.00570338,0.01318501,-0.02561277,-0.2142,0.8158,-9.6570,-0.005817,0.055470,0.071074,25.3127,16.8626,34.0821,-3.5195,0.3100,121,0,1,-0.013675,0.021142,-0.310195,-0.029410,0.055507,0.014882,-2.3464,-1.4053,22.0618
15161,11.0,-0.009750,0.002850,-0.309806,-0.009068,0.027416,0.016176,-4.5388,-0.8349,-0.0457,0.00005050,-0.00139542,-0.00011225,-0.00570444,0.01323749,-0.02581715,-0.1800,0.8550,-9.6188,0.005932,0.045836,0.069556,25.3127,16.8626,34.0821,-3.5195,0.3120,126,1,0,-0.013880,0.021625,-0.309738,-0.028311,0.055092,0.019780,-2.3748,-1.3408,22.2692
15172,11.0,-0.009919,0.002874,-0.309622,-0.010232,0.025118,0.017291,-4.5563,-0.8052,0.0004,0.00015286,-0.00141882,-0.00011681,-0.00569520,0.01324145,-0.02581540,-0.1871,0.8537,-9.6963,-0.001664,0.035079,0.062960,25.3127,16.8626,34.0821,-3.5195,0.3120,125,0,0,-0.014082,0.021598,-0.310812,-0.029176,0.052380,0.008174,-2.3796,-1.3085,22.3862
15183,11.0,-0.010096,0.003875,-0.310208,-0.010913,0.034133,0.009381,-4.5236,-0.7738,0.0229,-0.00010031,-0.00144101,-0.00012526,-0.00570269,0.01287944,-0.02395143,-0.1382,0.8876,-9.6948,-0.008137,0.037345,0.059954,25.3127,16.8626,34.0821,-3.5195,0.3120,122,0,2,-0.014746,0.022379,-0.310523,-0.033010,0.057208,0.011920,-2.3813,-1.2659,22.0387
15194,11.0,-0.010242,0.004387,-0.310099,-0.011362,0.037020,0.010455,-4.5235,-0.7493,0.0055,-0.00014560,-0.00144937,-0.00012791,-0.00570021,0.01285541,-0.02395334,-0.1530,0.9130,-9.6945,-0.010332,0.030715,0.057982,25.3127,16.8626,34.0821,-3.5195,0.3120,117,0,1,-0.015081,0.022767,-0.310261,-0.034694,0.059034,0.014926,-2.4021,-1.2368,22.1336
