timestamp_ms,dt_ms,pos_x,pos_y,pos_z,vel_x,vel_y,vel_z,roll_deg,pitch_deg,yaw_deg,gyro_bias_x,gyro_bias_y,gyro_bias_z,accel_bias_x,accel_bias_y,accel_bias_z,raw_accel_x,raw_accel_y,raw_accel_z,raw_gyro_x,raw_gyro_y,raw_gyro_z,raw_mag_x,raw_mag_y,raw_mag_z,raw_baro_alt,raw_tof,raw_flow_squal,raw_flow_dx,raw_flow_dy,dev_pos_x,dev_pos_y,dev_pos_z,dev_vel_x,dev_vel_y,dev_vel_z,dev_roll_deg,dev_pitch_deg,dev_yaw_deg
11327,10.0,-0.000460,-0.000050,-0.316938,-0.047631,-0.000489,-0.001187,-0.0058,0.0089,0.0010,0.00000000,0.00000000,-0.13171183,-0.00151348,0.00339969,0.00000000,-0.3293,0.8976,-9.8495,-0.006445,-0.001856,-0.022963,26.1084,16.4875,33.7145,-3.3768,0.3170,111,-1,0,-0.002872,-0.000981,-0.316721,-0.014061,0.003677,0.007945,-2.8117,-2.0271,1.4500
11338,11.0,-0.001009,-0.000651,-0.316946,-0.051495,-0.022360,-0.000373,-0.2298,0.0146,0.0070,0.00000035,-0.00000000,-0.13171184,-0.00151029,0.00376862,0.00000004,-0.3261,0.9189,-9.7298,-0.028913,0.006086,-0.009972,26.1084,16.4875,33.7145,-3.3768,0.3180,101,-1,-1,-0.003321,-0.000975,-0.317053,-0.018827,0.004629,0.002869,-2.8699,-1.9620,1.5617
11349,11.0,-0.001055,-0.001259,-0.315051,-0.036792,-0.027409,0.084510,-0.4888,-0.3045,-0.0188,0.00000108,0.00000097,-0.13171178,-0.00209600,0.00421366,-0.00005047,-0.3580,0.8705,-9.6397,-0.023997,0.006939,-0.003052,26.1084,17.5681,34.5420,-3.3768,0.3180,112,0,-1,-0.003775,-0.001461,-0.317024,-0.023041,0.000321,0.003160,-2.9145,-1.9084,1.7345
11361,12.0,-0.001058,-0.001332,-0.317930,-0.027986,-0.013870,-0.028756,-0.2995,-0.7327,-0.0387,0.00000026,0.00000280,-0.13171160,-0.00284483,0.00387569,0.00004618,-0.4203,0.7224,-9.8293,0.007949,-0.012069,-0.016042,26.1084,17.5681,34.5420,-3.3768,0.3180,110,0,0,-0.003834,-0.001941,-0.316882,-0.018181,-0.002028,0.005535,-2.9423,-2.0572,1.8337
11372,11.0,-0.001050,-0.001357,-0.318145,-0.022730,-0.004137,-0.027791,-0.1843,-1.1260,-0.0328,-0.00000033,0.00000505,-0.13171141,-0.00353258,0.00369613,0.00000896,-0.4606,0.7286,-9.9777,0.019696,-0.009696,-0.032908,26.1084,17.5681,34.5420,-3.3768,0.3170,108,0,0,-0.003822,-0.001921,-0.316562,-0.015564,-0.000619,0.008002,-2.8676,-2.1562,1.8559
11384,12.0,-0.001169,-0.001394,-0.318485,-0.020768,0.004514,-0.028820,-0.2477,-1.3511,-0.0154,0.00000015,0.00000677,-0.13171129,-0.00394845,0.00381227,0.00001448,-0.4071,0.8599,-9.8787,0.005144,0.014278,-0.031572,26.1084,17.5681,34.5420,-3.3768,0.3170,110,0,0,-0.003848,-0.001880,-0.316387,-0.012438,0.003367,0.005307,-2.6953,-2.2943,1.9222
11395,11.0,-0.001296,-0.001338,-0.317178,-0.017842,0.012440,0.000610,-0.2323,-1.4793,-0.0100,0.00000051,0.00000803,-0.13171120,-0.00422727,0.00393682,-0.00095220,-0.1990,0.8416,-9.7623,0.067762,0.010307,-0.052410,26.1084,17.5681,34.5420,-3.3768,0.3170,113,0,0,-0.003985,-0.001880,-0.316260,-0.012683,0.007283,0.006153,-2.5742,-2.3053,1.9845
11406,11.0,-0.001428,-0.001230,-0.317163,-0.016027,0.021407,0.002229,-0.3221,-1.5782,-0.0045,0.00000211,0.00000914,-0.13171114,-0.00441283,0.00420399,-0.00094886,-0.2501,1.0900,-9.6450,0.097891,0.007603,-0.017675,26.1084,17.5681,34.5420,-3.3768,0.3180,113,0,0,-0.004094,-0.001791,-0.316199,-0.011671,0.009660,0.006465,-2.5186,-2.2934,1.9897
11417,11.0,-0.001479,-0.001537,-0.317040,-0.011182,0.015440,0.004679,-1.2635,-1.7748,0.0075,0.00001467,0.00001157,-0.13171117,-0.00476114,0.00599514,-0.00112324,-0.1283,1.0616,-9.6446,0.081022,-0.010699,0.018109,26.1084,17.5681,34.5420,-3.3768,0.3180,123,0,-1,-0.004249,-0.001549,-0.316978,-0.008214,0.019488,-0.000150,-2.3468,-2.3150,2.0591
11428,11.0,-0.001478,-0.001473,-0.317541,-0.007118,0.018301,-0.002482,-1.5235,-1.9886,-0.0084,0.00001867,0.00001460,-0.13171096,-0.00509658,0.00639582,-0.00003705,-0.2646,0.8983,-9.7309,0.030584,-0.013888,0.024484,26.1084,17.5681,34.5420,-3.3768,0.3180,120,0,0,-0.004259,-0.001889,-0.316976,-0.005112,0.017877,0.001077,-2.2820,-2.3574,2.1721
11439,11.0,-0.001835,-0.001816,-0.317529,-0.015131,0.006608,-0.003501,-2.4227,-1.5500,0.0479,0.00003463,0.00000673,-0.13171208,-0.00430479,0.00803100,-0.00024643,-0.3313,0.7135,-9.8829,0.015947,-0.020037,0.025388,26.1084,17.5681,34.5420,-3.3768,0.3160,117,-1,-1,-0.004602,-0.002214,-0.316016,-0.007234,0.014770,0.011452,-2.2316,-2.3509,2.4002
11450,11.0,-0.001857,-0.001799,-0.317584,-0.011324,0.007262,-0.005879,-2.5320,-1.7758,-0.0056,0.00003688,0.00001138,-0.13171178,-0.00470229,0.00822235,-0.00023487,-0.3212,0.6785,-9.9918,0.002366,-0.007032,0.007410,26.8960,17.5756,32.8640,-3.4878,0.3160,121,0,0,-0.004531,-0.002179,-0.315912,-0.004901,0.014572,0.009720,-2.1735,-2.4040,2.4494
11462,12.0,-0.001991,-0.001767,-0.316265,-0.010532,0.009942,0.008655,-2.5077,-1.7416,0.0000,0.00003776,0.00001128,-0.13171181,-0.00484175,0.00871548,-0.00594916,-0.2268,0.7358,-9.9758,0.026876,0.019610,-0.013498,26.8960,17.5756,32.8640,-3.4878,0.3160,122,0,0,-0.004499,-0.002164,-0.315722,-0.002951,0.015386,0.008905,-2.0715,-2.4507,2.5275
11473,11.0,-0.002145,-0.001697,-0.316177,-0.010600,0.012789,0.007659,-2.5642,-1.6633,0.0036,0.00004017,0.00000959,-0.13171200,-0.00473814,0.00886463,-0.00595612,-0.1964,0.8645,-9.8712,0.048422,0.024773,-0.008574,26.8960,17.5756,32.8640,-3.4878,0.3170,124,0,0,-0.004710,-0.002074,-0.316102,-0.002069,0.018910,-0.000283,-1.9018,-2.4295,2.6675
11484,11.0,-0.002235,-0.002016,-0.315994,-0.008646,0.004110,0.008993,-3.1088,-1.6772,0.0071,0.00005941,0.00001037,-0.13171232,-0.00479788,0.00994343,-0.00666449,-0.1567,0.8452,-9.7455,0.055094,0.006439,0.006099,26.8960,17.5756,32.8640,-3.4878,0.3170,116,0,-1,-0.004837,-0.001994,-0.316111,-0.002052,0.021039,-0.001096,-1.8579,-2.3922,2.5969
11495,11.0,-0.002255,-0.002337,-0.316200,-0.005053,-0.003361,0.006188,-3.5119,-1.7528,0.0018,0.00007608,0.00001308,-0.13171236,-0.00487557,0.01057438,-0.00477830,-0.1195,0.8000,-9.6983,0.070976,-0.013174,0.013037,26.8960,17.5756,32.8640,-3.4878,0.3170,116,0,-1,-0.004903,-0.002361,-0.316123,-0.000508,0.018327,-0.001002,-1.7857,-2.4056,2.7100
11506,11.0,-0.002267,-0.002274,-0.316046,-0.002715,0.000622,0.008002,-3.3698,-1.7922,-0.0008,0.00007180,0.00001474,-0.13171217,-0.00495682,0.01044788,-0.00537734,-0.1744,0.7488,-9.7163,0.072719,-0.012378,0.008139,26.8960,17.5756,32.8640,-3.4878,0.3160,120,0,0,-0.004879,-0.002599,-0.315988,0.003748,0.018352,0.002617,-1.6171,-2.4314,2.8334
11517,11.0,-0.002359,-0.002246,-0.315955,-0.004020,0.001747,0.008500,-3.3416,-1.7151,0.0000,0.00007101,0.00001165,-0.13171238,-0.00484901,0.01042049,-0.00537908,-0.2848,0.6499,-9.7458,0.025033,0.018407,0.015268,26.8960,17.5756,32.8640,-3.4878,0.3160,116,0,0,-0.004867,-0.002486,-0.315657,0.004998,0.020717,0.006810,-1.5316,-2.4279,2.8620
11528,11.0,-0.002455,-0.002257,-0.315509,-0.005753,0.001388,0.012333,-3.3572,-1.6555,-0.0005,0.00007213,0.00000937,-0.13171256,-0.00484988,0.01068234,-0.00837707,-0.3547,0.5896,-9.8208,-0.010014,0.023688,-0.004310,26.8960,17.5756,32.8640,-3.4508,0.3160,119,0,0,-0.005032,-0.002408,-0.315513,0.003445,0.022382,0.007564,-1.3613,-2.4175,3.0425
11539,11.0,-0.002535,-0.002295,-0.315384,-0.007170,0.001295,0.010625,-3.4300,-1.6286,0.0012,0.00007545,0.00000881,-0.13171269,-0.00483549,0.01076940,-0.00838942,-0.3993,0.7132,-9.9403,-0.035106,0.022544,-0.012760,27.6863,16.1347,33.6915,-3.4508,0.3160,112,0,0,-0.005122,-0.002411,-0.315502,0.002158,0.022868,0.006519,-1.2730,-2.4186,3.1397
11550,11.0,-0.002702,-0.002329,-0.315191,-0.010015,0.002849,0.010072,-3.4929,-1.5361,0.0010,0.00007913,0.00000404,-0.13171317,-0.00474970,0.01091562,-0.00924831,-0.3767,0.8741,-9.9221,-0.026031,0.042488,-0.008533,27.6863,16.1347,33.6915,-3.4508,0.3160,108,0,0,-0.005193,-0.002424,-0.315446,0.000968,0.023223,0.005148,-1.2641,-2.4211,3.2021
11561,11.0,-0.002908,-0.002301,-0.315207,-0.012365,0.006120,0.008726,-3.4989,-1.4403,0.0011,0.00008074,-0.00000174,-0.13171367,-0.00460511,0.01085583,-0.00802132,-0.2941,0.9591,-9.7586,0.027199,0.042008,-0.005185,27.6863,16.1347,33.6915,-3.4508,0.3160,115,0,0,-0.005488,-0.002452,-0.315280,-0.002524,0.027465,0.004137,-1.1944,-2.3924,3.3587
11572,11.0,-0.003057,-0.002185,-0.315046,-0.013005,0.010784,0.009418,-3.4182,-1.4189,-0.0005,0.00007891,-0.00000243,-0.13171367,-0.00461064,0.01087496,-0.00869381,-0.2888,0.9781,-9.7846,0.100915,0.015383,-0.000815,27.6863,16.1347,33.6915,-3.4508,0.3150,112,0,0,-0.005678,-0.002420,-0.315237,-0.003996,0.031422,0.004595,-1.0819,-2.3823,3.4668
11583,11.0,-0.003205,-0.002039,-0.314952,-0.013639,0.013544,0.007632,-3.3430,-1.4042,-0.0003,0.00007804,-0.00000255,-0.13171366,-0.00460888,0.01086149,-0.00869132,-0.3061,0.8317,-9.9457,0.110843,0.013349,0.011162,27.6863,16.1347,33.6915,-3.4508,0.3150,117,0,0,-0.005984,-0.002158,-0.314720,-0.005397,0.038817,0.008083,-0.8580,-2.3752,3.2576
11594,11.0,-0.003492,-0.001947,-0.314554,-0.016928,0.013585,0.012122,-3.3373,-1.2904,0.0022,0.00008219,-0.00001210,-0.13171458,-0.00456603,0.01116404,-0.01186709,-0.2998,0.6856,-9.7203,0.056419,0.055769,0.021600,27.6863,16.1347,33.6915,-3.4297,0.3150,110,0,0,-0.006150,-0.002025,-0.314564,-0.006144,0.040393,0.007969,-0.7906,-2.3645,3.3249
11605,11.0,-0.003815,-0.002274,-0.314411,-0.019484,0.004418,0.014616,-3.5436,-1.1773,0.0073,0.00011802,-0.00002228,-0.13171642,-0.00444219,0.01161957,-0.01198512,-0.2110,0.5782,-9.5699,0.063140,0.060607,0.005595,27.6863,16.1347,33.6915,-3.4297,0.3160,114,0,-1,-0.006419,-0.001942,-0.314482,-0.008112,0.041501,0.008698,-0.6670,-2.3446,3.4531
11616,11.0,-0.003985,-0.002192,-0.314159,-0.018414,0.005333,0.018046,-3.4889,-1.1798,0.0003,0.00011541,-0.00001892,-0.13171612,-0.00450347,0.01165281,-0.01279300,-0.1783,0.6302,-9.5759,0.063067,0.021094,-0.006185,27.6863,16.1347,33.6915,-3.4297,0.3160,104,0,0,-0.006904,-0.002631,-0.315121,-0.009307,0.031622,0.004526,-0.5396,-2.2918,3.6637
11627,11.0,-0.004100,-0.002571,-0.314730,-0.015364,-0.001587,0.011445,-3.6756,-1.2034,0.0002,0.00015311,-0.00001227,-0.13171636,-0.00435277,0.01144142,-0.00494699,-0.0556,0.7284,-9.5432,0.041561,0.010442,-0.000543,27.6863,16.1347,33.6915,-3.4297,0.3160,107,0,-1,-0.007041,-0.002535,-0.315066,-0.008414,0.033060,0.006936,-0.4632,-2.2791,3.6940
11638,11.0,-0.004155,-0.002543,-0.314535,-0.011828,-0.000016,0.013880,-3.6402,-1.2431,0.0025,0.00014945,-0.00000323,-0.13171569,-0.00445606,0.01145297,-0.00555406,-0.0582,0.7042,-9.6369,0.030221,-0.000872,0.000348,27.6863,16.1347,33.6915,-3.4297,0.3130,101,0,0,-0.007108,-0.002915,-0.314886,-0.005667,0.030248,0.010758,-0.3768,-2.3014,3.7889
11649,11.0,-0.004084,-0.002588,-0.314386,-0.007825,-0.000831,0.013248,-3.6849,-1.3276,0.0043,0.00015354,0.00001464,-0.13171458,-0.00460801,0.01148823,-0.00556102,-0.1719,0.6360,-9.8520,-0.039017,-0.018494,0.016888,26.5089,15.7521,34.1743,-3.4297,0.3130,107,0,0,-0.007113,-0.002834,-0.313278,0.000019,0.034754,0.027579,-0.2281,-2.3330,3.8694
11660,11.0,-0.003812,-0.002686,-0.313101,-0.002012,-0.003461,0.022822,-3.7614,-1.4959,0.0130,0.00015975,0.00004926,-0.13171266,-0.00514040,0.01240208,-0.01707707,-0.2845,0.5414,-10.1905,-0.084250,-0.058212,0.019193,26.5089,15.7521,34.1743,-3.4297,0.3130,107,0,0,-0.006996,-0.002842,-0.312930,0.002827,0.034987,0.027942,-0.2209,-2.3599,3.8969
11671,11.0,-0.003532,-0.002782,-0.312887,0.002517,-0.005344,0.016159,-3.8325,-1.6371,0.0142,0.00016512,0.00008027,-0.13171110,-0.00532062,0.01243395,-0.01708501,-0.3433,0.6071,-10.4110,-0.078276,-0.056978,0.010751,26.5089,15.7521,34.1743,-3.5037,0.3150,107,0,0,-0.006732,-0.002890,-0.312666,0.006827,0.034761,0.025010,-0.1765,-2.4362,3.9734
11682,11.0,-0.003934,-0.002812,-0.312643,-0.004591,-0.003463,0.010492,-3.8338,-1.4877,-0.0167,0.00016277,0.00003445,-0.13171378,-0.00512958,0.01249744,-0.01812621,-0.2878,0.8478,-10.4224,-0.010794,-0.007860,-0.007839,26.5089,15.7521,34.1743,-3.5037,0.3150,105,-1,0,-0.006665,-0.003006,-0.313712,0.007144,0.035838,-0.000737,-0.0728,-2.5294,3.8284
11693,11.0,-0.004077,-0.002792,-0.313466,-0.005735,0.000081,-0.006031,-3.8058,-1.4330,-0.0022,0.00015891,0.00002365,-0.13171443,-0.00488865,0.01187076,-0.00947996,-0.2317,0.9655,-10.3060,0.030891,0.027354,-0.007083,26.5089,15.7521,34.1743,-3.5037,0.3150,105,0,0,-0.006610,-0.003006,-0.313750,0.008040,0.039038,-0.006729,0.0104,-2.5638,3.9112
11704,11.0,-0.004305,-0.002737,-0.313465,-0.007872,0.003368,-0.007280,-3.7615,-1.3467,-0.0019,0.00015421,0.00000423,-0.13171580,-0.00483745,0.01190859,-0.01025230,-0.1993,0.9152,-9.9827,0.053878,0.043497,0.014915,26.5089,15.7521,34.1743,-3.5037,0.3140,113,0,0,-0.006880,-0.002926,-0.313744,0.005881,0.047599,-0.012957,0.2275,-2.5602,4.1113
11715,11.0,-0.004524,-0.002625,-0.313547,-0.008953,0.006221,-0.007666,-3.6854,-1.2772,-0.0003,0.00014639,-0.00001239,-0.13171695,-0.00478122,0.01188155,-0.01024308,-0.1312,0.8215,-9.8231,0.093539,0.034039,0.027550,26.5089,15.7521,34.1743,-3.5037,0.3140,120,0,0,-0.007090,-0.002852,-0.313798,0.004324,0.051617,-0.013452,0.3493,-2.5474,4.2297
11726,11.0,-0.005257,-0.002485,-0.313387,-0.018988,0.007420,-0.004518,-3.5999,-1.0602,-0.0077,0.00013726,-0.00009081,-0.13172257,-0.00457458,0.01201094,-0.01246376,-0.2213,0.6473,-9.7729,0.106405,0.047483,0.028785,26.5089,15.7521,34.1743,-3.5037,0.3140,116,-1,0,-0.007988,-0.002607,-0.314071,-0.003935,0.055821,-0.012828,0.5541,-2.4643,4.4339
11737,11.0,-0.006019,-0.002347,-0.313440,-0.028188,0.007865,-0.005121,-3.5219,-0.8727,-0.0117,0.00012965,-0.00016105,-0.13172722,-0.00435874,0.01198717,-0.01245780,-0.2451,0.5879,-9.8574,0.101518,0.050116,0.031039,26.5089,15.7521,34.1743,-3.5037,0.3140,116,-1,0,-0.008704,-0.002486,-0.313837,-0.011145,0.056257,-0.008702,0.6356,-2.4028,4.5296
11747,10.0,-0.006349,-0.002334,-0.313408,-0.029165,0.005346,-0.005907,-3.5394,-0.8131,-0.0024,0.00013720,-0.00016726,-0.13172773,-0.00435938,0.01206998,-0.01331523,-0.1818,0.4638,-10.0035,-0.001950,0.072444,0.031821,26.1084,16.8477,34.1282,-3.4772,0.3140,117,0,0,-0.009001,-0.002375,-0.313931,-0.012165,0.056012,-0.009882,0.7661,-2.3891,4.6470
11758,11.0,-0.006917,-0.002465,-0.313402,-0.033071,0.000823,-0.003733,-3.6636,-0.6570,-0.0154,0.00016164,-0.00020094,-0.13172990,-0.00427707,0.01218025,-0.01390082,-0.1559,0.4465,-9.6849,-0.123372,0.139491,0.031497,26.1084,16.8477,34.1282,-3.4772,0.3140,119,0,0,-0.009755,-0.002426,-0.314052,-0.015460,0.052107,-0.010417,0.8303,-2.2865,4.8308
11770,12.0,-0.007489,-0.002626,-0.313349,-0.035286,-0.003100,0.001422,-3.7991,-0.5174,-0.0143,0.00018440,-0.00022579,-0.13173139,-0.00421700,0.01229438,-0.01457961,-0.0767,0.4918,-9.4580,-0.139072,0.131912,0.017776,26.1084,16.8477,34.1282,-3.4772,0.3130,116,0,0,-0.010282,-0.002581,-0.313305,-0.018401,0.048739,0.001043,0.7794,-2.1845,4.8904
11781,11.0,-0.007782,-0.002738,-0.313312,-0.033519,-0.005285,0.005161,-3.8733,-0.4908,0.0038,0.00019473,-0.00021235,-0.13173084,-0.00425820,0.01232653,-0.01459001,-0.0537,0.5370,-9.4709,-0.090680,0.066252,0.011287,26.1084,16.8477,34.1282,-3.4772,0.3130,120,0,0,-0.010763,-0.002751,-0.313201,-0.019929,0.046587,0.005586,0.7773,-2.1182,4.9940
11792,11.0,-0.007363,-0.002346,-0.312645,-0.022312,0.000761,0.013913,-3.8054,-0.6568,0.0645,0.00012675,-0.00009479,-0.13172473,-0.00469810,0.01245372,-0.01968013,-0.1137,0.6153,-9.6556,-0.049320,0.002560,0.004714,26.1084,16.8477,34.1282,-3.4772,0.3130,115,1,1,-0.010792,-0.002448,-0.312897,-0.011499,0.052167,0.013811,0.8839,-2.1187,4.9043
11803,11.0,-0.007316,-0.001512,-0.312486,-0.017671,0.011867,0.015067,-3.6798,-0.7183,0.0501,-0.00000088,-0.00005032,-0.13172202,-0.00482233,0.01208702,-0.01960802,-0.0745,0.5801,-9.7062,-0.077382,-0.009531,0.014763,26.1084,16.8477,34.1282,-3.4772,0.3140,119,0,2,-0.010807,-0.002023,-0.312753,-0.008936,0.057313,0.015636,0.8961,-2.1303,4.9213
11814,11.0,-0.007308,-0.000614,-0.312198,-0.014339,0.021405,0.018876,-3.5507,-0.7561,0.0460,-0.00012375,-0.00001884,-0.13172023,-0.00492280,0.01179541,-0.02047157,-0.0813,0.4898,-9.5895,-0.044176,-0.003150,-0.001486,26.1084,16.8477,34.1282,-3.5142,0.3140,119,0,2,-0.010811,-0.001179,-0.313332,-0.005940,0.067421,0.009236,0.9838,-2.1723,5.0040
11825,11.0,-0.007143,-0.000587,-0.312747,-0.010179,0.018038,0.011021,-3.5972,-0.8414,0.0147,-0.00009018,0.00003404,-0.13171805,-0.00497615,0.01151530,-0.01421224,-0.1712,0.5687,-9.7099,-0.010086,-0.042354,-0.011565,26.1084,16.8477,34.1282,-3.5142,0.3140,116,0,0,-0.010761,-0.000248,-0.312999,-0.000762,0.073761,0.014930,1.0880,-2.2241,5.0847
11836,11.0,-0.006787,-0.000567,-0.312553,-0.004575,0.014116,0.010264,-3.6392,-0.9799,0.0301,-0.00006152,0.00011386,-0.13171494,-0.00517376,0.01162423,-0.01494039,-0.2443,0.4958,-9.9721,-0.013745,-0.084112,-0.007429,26.8987,17.5681,33.7145,-3.5142,0.3120,117,0,0,-0.010592,-0.000180,-0.312140,0.002477,0.072009,0.024232,1.0982,-2.2640,5.0916
11847,11.0,-0.006424,-0.000606,-0.312446,0.000799,0.010622,0.009074,-3.7103,-1.1011,0.0262,-0.00002832,0.00018631,-0.13171224,-0.00532906,0.01169681,-0.01496994,-0.2118,0.5632,-9.9167,-0.054915,-0.078069,-0.004774,26.8987,17.5681,33.7145,-3.5142,0.3120,117,0,0,-0.009876,-0.000044,-0.311677,0.011746,0.069108,0.022048,1.1727,-2.4316,5.1676
11858,11.0,-0.006115,-0.000667,-0.311689,0.005187,0.007984,0.017289,-3.7861,-1.1886,0.0163,0.00000384,0.00023967,-0.13171020,-0.00549981,0.01204594,-0.02024678,-0.1677,0.6265,-9.7597,-0.065083,-0.062071,0.004040,26.8987,17.5681,33.7145,-3.5142,0.3120,115,0,0,-0.009511,-0.000028,-0.311331,0.016031,0.068284,0.023022,1.2188,-2.5182,5.2359
11869,11.0,-0.005882,-0.000279,-0.311489,0.008395,0.012115,0.019187,-3.7837,-1.2388,0.0207,-0.00005111,0.00027108,-0.13170817,-0.00556245,0.01193461,-0.02023178,-0.1268,0.6529,-9.6352,-0.075516,-0.041460,0.008206,26.8987,17.5681,33.7145,-3.5142,0.3140,119,0,1,-0.009196,-0.000019,-0.311101,0.019394,0.067169,0.023772,1.1921,-2.5647,5.2504
11880,11.0,-0.005653,0.000150,-0.311154,0.010963,0.016757,0.023615,-3.7656,-1.2828,0.0168,-0.00010597,0.00029592,-0.13170637,-0.00562281,0.01186699,-0.02108911,-0.1415,0.7034,-9.5197,-0.045674,-0.043462,0.011490,26.8987,17.5681,33.7145,-3.5142,0.3140,117,0,1,-0.008801,0.000861,-0.312448,0.023181,0.076631,0.010429,1.2506,-2.6278,5.1165
11891,11.0,-0.005845,0.000612,-0.311080,0.006281,0.020997,0.022776,-3.7374,-1.2610,-0.0093,-0.00015928,0.00023622,-0.13170895,-0.00548757,0.01168186,-0.01954901,-0.2699,0.6966,-9.6713,-0.023831,-0.055099,0.013518,26.8987,17.5681,33.7145,-3.5512,0.3120,113,-1,1,-0.009012,0.001296,-0.312329,0.019467,0.081280,0.013503,1.3293,-2.6672,5.2098
11902,11.0,-0.006087,0.000610,-0.310746,0.000796,0.017526,0.022270,-3.7959,-1.2344,-0.0186,-0.00011328,0.00017598,-0.13171312,-0.00539156,0.01180212,-0.02030023,-0.3544,0.6257,-9.9543,-0.031143,-0.043453,0.004387,26.8987,17.5681,33.7145,-3.5512,0.3120,112,-1,0,-0.009427,0.001767,-0.311575,0.011826,0.083226,0.019725,1.3952,-2.7292,5.3513
11913,11.0,-0.006084,0.000573,-0.310513,-0.000545,0.013949,0.020209,-3.8675,-1.2238,-0.0008,-0.00006683,0.00017648,-0.13171417,-0.00539260,0.01187416,-0.02031090,-0.3452,0.6219,-9.9945,-0.054968,0.008727,0.001048,26.8987,17.5681,33.7145,-3.5512,0.3120,112,0,0,-0.009694,0.001770,-0.311273,0.007543,0.080735,0.019610,1.3785,-2.7462,5.4101
11924,11.0,-0.006247,0.000500,-0.310726,-0.003279,0.010578,0.013531,-3.9518,-1.1642,-0.0075,-0.00001984,0.00014447,-0.13171713,-0.00530174,0.01176236,-0.01704517,-0.2824,0.6451,-9.9566,-0.078511,0.049354,-0.009924,26.8987,17.5681,33.7145,-3.5512,0.3120,112,0,0,-0.009696,0.001760,-0.311086,0.007077,0.079094,0.018143,1.4185,-2.7643,5.5032
11935,11.0,-0.006515,0.000404,-0.310578,-0.006699,0.007992,0.013258,-4.0414,-1.0784,-0.0098,0.00002608,0.00009503,-0.13172118,-0.00523826,0.01182193,-0.01705082,-0.2413,0.7085,-9.8248,-0.089523,0.073369,-0.003764,26.8987,17.5681,33.7145,-3.5512,0.3140,112,0,0,-0.009800,0.001729,-0.310916,0.005790,0.076796,0.016812,1.3797,-2.7452,5.5522
11946,11.0,-0.006794,0.000347,-0.310299,-0.009162,0.006654,0.017119,-4.0990,-0.9994,-0.0076,0.00005887,0.00004964,-0.13172479,-0.00519522,0.01191801,-0.01799126,-0.1646,0.7429,-9.5802,-0.054541,0.068834,0.002220,27.6863,17.2154,34.1052,-3.5512,0.3140,117,0,0,-0.010315,0.002031,-0.312478,0.001115,0.079105,-0.000867,1.3675,-2.6644,5.6942
11957,11.0,-0.006906,0.000335,-0.311773,-0.008955,0.006063,-0.000480,-4.1202,-0.9766,-0.0005,0.00007824,0.00004794,-0.13172533,-0.00495171,0.01122894,-0.00541478,-0.1388,0.7451,-9.6036,-0.015437,0.024114,0.004341,27.6863,17.2154,34.1052,-3.5512,0.3140,113,0,0,-0.010566,0.001985,-0.312345,-0.000268,0.078444,0.003176,1.4056,-2.6402,5.7986
11968,11.0,-0.006875,0.000377,-0.311681,-0.008068,0.004863,0.001657,-4.1098,-0.9968,0.0039,0.00008257,0.00007872,-0.13172343,-0.00500622,0.01127694,-0.00613004,-0.2478,0.6227,-9.7020,0.023438,-0.013089,0.012529,27.6863,17.2154,34.1052,-3.5512,0.3120,113,0,0,-0.010733,0.002054,-0.311829,0.001083,0.078077,0.012122,1.4703,-2.6387,5.9300
11979,11.0,-0.006793,0.000435,-0.311667,-0.006613,0.003171,0.000865,-4.0881,-1.0304,0.0062,0.00007928,0.00011982,-0.13172083,-0.00505529,0.01127315,-0.00613194,-0.2492,0.5496,-9.8720,0.033887,-0.025877,0.008694,27.6863,17.2154,34.1052,-3.5512,0.3120,112,0,0,-0.010689,0.002150,-0.311606,0.002378,0.077345,0.014454,1.4967,-2.6584,5.9751
11990,11.0,-0.006739,0.000488,-0.311319,-0.005971,0.001696,0.003178,-4.0654,-1.0536,0.0052,0.00007237,0.00015119,-0.13171881,-0.00514258,0.01142180,-0.00869088,-0.2793,0.5554,-9.9617,0.032910,-0.018403,-0.004858,27.6863,17.2154,34.1052,-3.5512,0.3120,116,0,0,-0.010615,0.002250,-0.311463,0.004171,0.077144,0.014308,1.6059,-2.6839,5.7463
12001,11.0,-0.006706,0.000488,-0.311292,-0.005096,0.000077,0.001850,-4.0723,-1.0667,0.0044,0.00007488,0.00017617,-0.13171744,-0.00516630,0.01142429,-0.00869233,-0.2259,0.5802,-9.9216,-0.006501,-0.008392,-0.008856,27.6863,17.2154,34.1052,-3.5512,0.3140,114,0,0,-0.010500,0.002438,-0.312514,0.006377,0.076165,-0.002470,1.7238,-2.7449,5.8773
12012,11.0,-0.006585,0.000441,-0.311149,-0.003107,-0.000772,0.003699,-4.1040,-1.0983,0.0070,0.00008665,0.00022082,-0.13171509,-0.00522812,0.01149009,-0.00959509,-0.2121,0.6821,-9.7583,-0.038335,-0.023364,-0.004863,27.6863,17.2154,34.1052,-3.5512,0.3140,112,0,0,-0.010448,0.002487,-0.312544,0.007495,0.075477,-0.003128,1.7266,-2.7563,5.9134
12023,11.0,-0.006345,0.000419,-0.312217,0.001387,-0.000296,-0.008677,-4.1156,-1.1607,0.0079,0.00009034,0.00029095,-0.13171072,-0.00510581,0.01100650,-0.00158716,-0.0928,0.7702,-9.7243,-0.014201,-0.054436,0.002907,27.6863,17.2154,34.1052,-3.5512,0.3140,116,0,0,-0.010159,0.002542,-0.312461,0.011807,0.076291,0.000088,1.7659,-2.8254,6.0273
12034,11.0,-0.006087,0.000410,-0.312215,0.005114,0.000980,-0.006739,-4.1209,-1.2198,0.0040,0.00009406,0.00035287,-0.13170652,-0.00517695,0.01105229,-0.00227500,-0.1356,0.8414,-9.7027,-0.002359,-0.058197,0.014231,25.7079,16.5023,33.2548,-3.5512,0.3130,120,0,0,-0.009921,0.002596,-0.312369,0.015676,0.078334,0.002368,1.8362,-2.8907,6.1107
12045,11.0,-0.005835,0.000392,-0.312287,0.007523,0.001501,-0.006346,-4.1350,-1.2700,0.0015,0.00010305,0.00040511,-0.13170290,-0.00522219,0.01106025,-0.00227686,-0.2182,0.7988,-9.7428,-0.012333,-0.053638,0.027906,25.7079,16.5023,33.2548,-3.5512,0.3130,116,0,0,-0.009670,0.002673,-0.312342,0.018772,0.080033,0.003826,1.8261,-2.9239,6.1331
12057,12.0,-0.006594,0.000379,-0.312159,-0.003047,0.002057,-0.003539,-4.1489,-1.1900,-0.0010,0.00011312,0.00017479,-0.13172057,-0.00506092,0.01115941,-0.00368684,-0.2193,0.8003,-9.7416,-0.010127,-0.039287,0.020847,25.7079,16.5023,33.2548,-3.4931,0.3130,127,-2,0,-0.009199,0.002796,-0.312121,0.022842,0.082891,0.007627,1.8779,-3.0152,6.2716
12068,11.0,-0.006413,0.000339,-0.312203,-0.000969,0.002285,-0.004612,-4.1779,-1.2312,-0.0015,0.00013209,0.00023499,-0.13171624,-0.00510653,0.01117392,-0.00368789,-0.2681,0.8256,-9.8748,-0.030185,-0.036471,0.020758,25.7079,16.5023,33.2548,-3.4931,0.3140,125,0,0,-0.009896,0.002750,-0.312042,0.013637,0.083350,0.008766,1.9410,-3.0267,6.4229
12080,12.0,-0.006280,0.000276,-0.312172,0.000119,0.001728,-0.005865,-4.2267,-1.2554,-0.0014,0.00015883,0.00027703,-0.13171348,-0.00514901,0.01124169,-0.00441507,-0.2835,0.7918,-9.9866,-0.051832,-0.021803,0.022894,25.7079,16.5023,33.2548,-3.4931,0.3140,124,0,0,-0.009553,0.002796,-0.312822,0.016864,0.084973,-0.000904,1.9581,-3.0761,6.2829
12091,11.0,-0.006186,0.000257,-0.312704,0.000423,0.001672,-0.013732,-4.2424,-1.2712,-0.0011,0.00017060,0.00030535,-0.13171147,-0.00509706,0.01102664,-0.00130641,-0.3071,0.7905,-10.0138,-0.014638,-0.017823,0.009659,25.7079,16.5023,33.2548,-3.4931,0.3140,129,0,0,-0.009417,0.002814,-0.312843,0.017524,0.085046,-0.002260,1.9183,-3.0936,6.3397
12102,11.0,-0.006152,0.000252,-0.312792,0.000787,0.002245,-0.015383,-4.2496,-1.2728,-0.0004,0.00017906,0.00031400,-0.13171096,-0.00511308,0.01107045,-0.00184829,-0.2280,0.8383,-10.0095,-0.003149,-0.007086,0.003794,25.7079,16.5023,33.2548,-3.4931,0.3120,127,0,0,-0.009310,0.002853,-0.312741,0.017765,0.086254,-0.002277,1.9782,-3.1300,6.4443
12113,11.0,-0.006238,0.000244,-0.312965,-0.000255,0.002656,-0.016007,-4.2589,-1.2437,0.0025,0.00019003,0.00028569,-0.13171366,-0.00510089,0.01107509,-0.00184741,-0.2129,0.8202,-9.8335,-0.005376,0.020105,0.004231,25.7079,16.5023,33.2548,-3.4772,0.3120,127,0,0,-0.009256,0.002958,-0.311782,0.017647,0.088679,0.005320,2.0334,-3.1525,6.5994
12125,12.0,-0.006257,0.000256,-0.311939,-0.000536,0.003569,-0.001733,-4.2582,-1.2326,0.0007,0.00019654,0.00028004,-0.13171431,-0.00528730,0.01171049,-0.01001136,-0.2251,0.8428,-9.7676,0.007605,0.003091,0.007260,25.7079,16.5023,33.2548,-3.4772,0.3120,130,0,0,-0.009321,0.003004,-0.311734,0.016508,0.089122,0.005392,2.0136,-3.1305,6.6548
12136,11.0,-0.006184,0.000294,-0.311957,0.000362,0.004237,-0.001658,-4.2430,-1.2474,-0.0026,0.00019816,0.00030422,-0.13171221,-0.00529788,0.01171123,-0.01001150,-0.2217,0.8058,-9.7788,0.028219,-0.020215,0.005014,25.7079,16.5023,33.2548,-3.4772,0.3140,130,0,0,-0.009352,0.003047,-0.311678,0.015832,0.090540,0.006314,2.0788,-3.1438,6.7678
12147,11.0,-0.006078,0.000313,-0.311884,0.001282,0.004717,-0.000902,-4.2399,-1.2670,-0.0035,0.00020798,0.00033627,-0.13170959,-0.00532661,0.01176797,-0.01065262,-0.2496,0.8185,-9.8181,0.013399,-0.024798,0.012808,25.7105,15.0541,34.1052,-3.4772,0.3140,120,0,0,-0.009206,0.003242,-0.312614,0.017004,0.092857,-0.002794,2.1555,-3.1863,6.9206
12158,11.0,-0.006018,0.000306,-0.312537,0.001314,0.004153,-0.008767,-4.2544,-1.2727,-0.0012,0.00022820,0.00035251,-0.13170868,-0.00523273,0.01142380,-0.00641743,-0.2750,0.7531,-9.8221,-0.009003,-0.011231,0.014594,25.7105,15.0541,34.1052,-3.4772,0.3140,117,0,0,-0.009017,0.003400,-0.312563,0.017952,0.094284,-0.000719,2.2092,-3.2332,7.0826
12169,11.0,-0.005923,0.000260,-0.312565,0.001997,0.003513,-0.008465,-4.2908,-1.2834,-0.0019,0.00025861,0.00037871,-0.13170716,-0.00525482,0.01147691,-0.00690204,-0.2518,0.7886,-9.8341,-0.039322,-0.014745,0.016604,25.7105,15.0541,34.1052,-3.4772,0.3110,118,0,0,-0.008938,0.003454,-0.311200,0.017934,0.093839,0.014806,2.1899,-3.2412,7.1387
12180,11.0,-0.005864,0.000174,-0.312657,0.002036,0.002840,-0.008245,-4.3486,-1.2818,0.0000,0.00030060,0.00039151,-0.13170716,-0.00525989,0.01149352,-0.00689958,-0.2637,0.8230,-9.7600,-0.067791,-0.002296,0.018930,25.7105,15.0541,34.1052,-3.4772,0.3110,113,0,0,-0.008841,0.003469,-0.310976,0.018502,0.094250,0.016127,2.2264,-3.2726,7.2531
12191,11.0,-0.005780,0.000105,-0.311216,0.002040,0.001875,0.010344,-4.3948,-1.2863,-0.0008,0.00032995,0.00041189,-0.13170621,-0.00551611,0.01236338,-0.01682910,-0.2942,0.7722,-9.7231,-0.056752,-0.009191,0.023530,25.7105,15.0541,34.1052,-3.3610,0.3110,117,0,0,-0.008682,0.003448,-0.310580,0.018597,0.093764,0.019251,2.2056,-3.2670,7.0166
12203,12.0,-0.005591,0.000099,-0.311090,0.003475,0.001278,0.010602,-4.4055,-1.3213,-0.0054,0.00033870,0.00046791,-0.13170153,-0.00553934,0.01236701,-0.01682833,-0.2725,0.7385,-9.7748,-0.008158,-0.038731,0.017764,25.7105,15.0541,34.1052,-3.3610,0.3140,116,0,0,-0.008567,0.003469,-0.312113,0.018826,0.092845,0.001444,2.1481,-3.2749,7.0946
12214,11.0,-0.005413,0.000144,-0.310927,0.004751,0.001430,0.010673,-4.3844,-1.3550,-0.0053,0.00032784,0.00051597,-0.13169701,-0.00556698,0.01239174,-0.01715981,-0.2708,0.7490,-9.8443,0.032215,-0.042439,0.007207,25.7105,15.0541,34.1052,-3.3610,0.3140,116,0,0,-0.008391,0.003531,-0.312095,0.020016,0.093308,0.002421,2.2027,-3.3224,7.2058
12225,11.0,-0.005381,0.000164,-0.310916,0.004133,0.001094,0.009669,-4.3775,-1.3518,0.0004,0.00032556,0.00050976,-0.13169748,-0.00554607,0.01233097,-0.01647347,-0.2732,0.7219,-9.7744,0.013404,-0.007233,-0.000250,25.7105,15.0541,34.1052,-3.3610,0.3120,114,0,0,-0.008092,0.003745,-0.311992,0.021479,0.094513,0.003568,2.2780,-3.3886,7.3699
12236,11.0,-0.005354,0.000194,-0.310763,0.003590,0.000067,0.011686,-4.3661,-1.3491,-0.0001,0.00031677,0.00050416,-0.13169767,-0.00555055,0.01234867,-0.01672158,-0.2658,0.6300,-9.6623,0.017702,-0.007178,-0.005209,27.2911,16.4949,33.6915,-3.3610,0.3120,109,0,0,-0.008056,0.003830,-0.311480,0.020762,0.094251,0.009844,2.2732,-3.3866,7.4294
12247,11.0,-0.005684,0.000203,-0.310630,-0.001357,-0.000944,0.012578,-4.3650,-1.3309,0.0058,0.00031155,0.00037534,-0.13170771,-0.00549433,0.01234642,-0.01672374,-0.2905,0.6452,-9.7218,0.003068,-0.033155,-0.004925,27.2911,16.4949,33.6915,-3.3610,0.3120,108,-1,0,-0.008396,0.003946,-0.311250,0.015096,0.092884,0.013959,2.3404,-3.3954,7.6149
12258,11.0,-0.005485,0.000171,-0.311289,0.001335,-0.001882,0.003964,-4.3860,-1.3698,-0.0027,0.00031903,0.00045233,-0.13170190,-0.00538435,0.01192840,-0.01171351,-0.2158,0.6879,-9.7316,-0.026291,-0.040726,0.002930,27.2911,16.4949,33.6915,-3.3610,0.3130,109,0,0,-0.008676,0.003964,-0.311043,0.011509,0.092459,0.016135,2.3999,-3.4254,7.7363
12270,12.0,-0.005312,0.000103,-0.311239,0.002763,-0.001977,0.004239,-4.4254,-1.3976,-0.0018,0.00033637,0.00051009,-0.13169783,-0.00540910,0.01193575,-0.01171135,-0.2773,0.7991,-9.7634,-0.047509,-0.030040,0.005933,27.2911,16.4949,33.6915,-3.4191,0.3130,112,0,0,-0.008481,0.004025,-0.311652,0.014173,0.092091,0.008916,2.3663,-3.4473,7.7837
12282,12.0,-0.005163,0.000020,-0.311124,0.003525,-0.002133,0.003479,-4.4742,-1.4157,-0.0012,0.00035966,0.00055396,-0.13169500,-0.00543909,0.01198208,-0.01217882,-0.3019,0.8281,-9.9215,-0.058894,-0.022068,0.016295,27.2911,16.4949,33.6915,-3.4191,0.3130,108,0,0,-0.008155,0.004067,-0.311394,0.017241,0.093459,0.011584,2.3619,-3.4783,7.5500
12294,12.0,-0.004998,-0.000059,-0.311005,0.004319,-0.002596,0.002402,-4.5201,-1.4364,-0.0017,0.00037972,0.00060111,-0.13169177,-0.00546980,0.01203198,-0.01272411,-0.3101,0.8047,-9.9630,-0.055838,-0.025531,0.019643,27.2911,16.4949,33.6915,-3.4191,0.3120,105,0,0,-0.008006,0.004066,-0.311282,0.018184,0.094446,0.011212,2.3825,-3.5157,7.6642
12305,11.0,-0.004847,-0.000077,-0.310932,0.004265,-0.002210,0.001377,-4.5285,-1.4571,-0.0033,0.00037621,0.00064269,-0.13168816,-0.00549130,0.01205875,-0.01307087,-0.3779,0.8219,-9.9372,-0.010433,-0.028963,0.017565,27.2911,16.4949,33.6915,-3.4191,0.3120,114,0,0,-0.007698,0.004105,-0.311013,0.019465,0.095598,0.010556,2.3522,-3.5699,7.8541
12316,11.0,-0.004708,-0.000034,-0.310929,0.004094,-0.001738,-0.000705,-4.5040,-1.4797,-0.0051,0.00034987,0.00068042,-0.13168402,-0.00549942,0.01205320,-0.01307196,-0.3805,0.7708,-9.9772,0.033522,-0.032811,0.009091,27.2911,16.4949,33.6915,-3.4191,0.3120,113,0,0,-0.007561,0.004176,-0.310845,0.019333,0.096013,0.010710,2.3200,-3.5896,7.9296
12327,11.0,-0.004621,0.000037,-0.311453,0.003772,-0.000816,-0.007874,-4.4640,-1.4933,-0.0049,0.00031473,0.00069925,-0.13168108,-0.00540414,0.01180279,-0.01002345,-0.3406,0.7784,-9.9014,0.055413,-0.025103,0.009410,27.2911,16.4949,33.6915,-3.4191,0.3130,112,0,0,-0.007438,0.004277,-0.310744,0.019050,0.097230,0.009907,2.3897,-3.6302,8.0480
12338,11.0,-0.004592,0.000097,-0.311542,0.003267,-0.000284,-0.008157,-4.4319,-1.4935,-0.0024,0.00028733,0.00069528,-0.13168037,-0.00540345,0.01179766,-0.01002547,-0.2970,0.7513,-9.8136,0.045414,-0.011679,0.006536,27.6808,16.5098,34.4727,-3.3821,0.3130,115,0,0,-0.007276,0.004537,-0.311474,0.018511,0.099565,0.000597,2.4717,-3.6784,8.2439
12349,11.0,-0.005089,0.000120,-0.311576,-0.003141,-0.000585,-0.007791,-4.4220,-1.4430,0.0109,0.00027560,0.00048591,-0.13169700,-0.00537588,0.01182381,-0.01038228,-0.2839,0.7135,-9.8210,0.015753,-0.000267,0.007810,27.6808,16.5098,34.4727,-3.3821,0.3130,115,-1,0,-0.007246,0.004660,-0.311471,0.018032,0.099908,0.001221,2.4704,-3.6775,8.3162
12360,11.0,-0.005124,0.000109,-0.311285,-0.004065,-0.001802,-0.004336,-4.4318,-1.4304,-0.0000,0.00027485,0.00048652,-0.13169694,-0.00545702,0.01200432,-0.01264223,-0.3425,0.6624,-9.8859,-0.012235,0.009767,0.006083,27.6808,16.5098,34.4727,-3.3821,0.3120,117,0,0,-0.007693,0.004757,-0.311368,0.012099,0.099022,0.002680,2.5121,-3.6724,8.5443
12371,11.0,-0.005709,0.000050,-0.311292,-0.011002,-0.003215,-0.004488,-4.4667,-1.3625,0.0080,0.00028847,0.00027023,-0.13171412,-0.00543083,0.01202774,-0.01291224,-0.3178,0.6819,-9.8579,-0.047321,0.027540,0.008020,27.6808,16.5098,34.4727,-3.3821,0.3120,122,-1,0,-0.008161,0.004723,-0.311156,0.006327,0.097807,0.004647,2.5495,-3.6669,8.6930
12382,11.0,-0.005862,0.000004,-0.311345,-0.011758,-0.003760,-0.005145,-4.4909,-1.3311,0.0007,0.00029175,0.00025834,-0.13171516,-0.00542893,0.01202826,-0.01291227,-0.2781,0.7395,-9.8522,-0.033930,0.035946,0.002407,27.6808,16.5098,34.4727,-3.3821,0.3120,125,0,0,-0.008671,0.004656,-0.311065,0.000767,0.095620,0.005345,2.4941,-3.6292,8.7961
12393,11.0,-0.005946,0.000472,-0.311124,-0.011702,0.002039,-0.001784,-4.4597,-1.3171,-0.0194,0.00008167,0.00027683,-0.13170587,-0.00549391,0.01211817,-0.01454294,-0.2783,0.7703,-9.7791,-0.012396,0.017596,0.005663,27.6808,16.5098,34.4727,-3.3821,0.3120,123,0,1,-0.008909,0.004655,-0.310882,0.000857,0.095132,0.007220,2.4946,-3.5661,8.5544
12404,11.0,-0.005994,0.000482,-0.311142,-0.010956,0.001402,-0.001521,-4.4598,-1.3130,-0.0007,0.00008551,0.00031098,-0.13170336,-0.00550016,0.01211885,-0.01454218,-0.2488,0.7247,-9.7717,0.004271,0.006923,0.002356,27.6808,16.5098,34.4727,-3.3821,0.3120,122,0,0,-0.009051,0.005123,-0.310975,0.000511,0.100947,0.006530,2.5544,-3.5740,8.6595
12415,11.0,-0.006019,0.000507,-0.311060,-0.010069,0.000671,-0.000082,-4.4512,-1.3139,-0.0014,0.00007967,0.00035111,-0.13170011,-0.00553003,0.01216218,-0.01512544,-0.2500,0.6918,-9.7750,0.014846,0.000693,-0.001669,27.6808,16.5098,34.4727,-3.4931,0.3120,122,0,0,-0.009117,0.005247,-0.310729,0.002388,0.100562,0.009872,2.5729,-3.5804,8.8336
12426,11.0,-0.005996,0.000557,-0.309929,-0.009384,0.000260,0.013057,-4.4272,-1.3257,-0.0021,0.00006099,0.00040687,-0.13169532,-0.00578480,0.01265064,-0.02162725,-0.3126,0.6869,-9.8092,0.035296,-0.012104,-0.011817,27.6808,16.5098,34.4727,-3.4931,0.3100,123,0,0,-0.009125,0.005335,-0.310633,0.003426,0.100007,0.010914,2.5548,-3.5748,8.8909
12437,11.0,-0.005911,0.000597,-0.309711,-0.007558,-0.000222,0.013893,-4.4087,-1.3509,-0.0020,0.00004329,0.00048828,-0.13168873,-0.00581694,0.01268032,-0.02206988,-0.2664,0.6831,-9.8120,0.027068,-0.025138,-0.014574,28.0787,16.5023,34.4958,-3.4931,0.3100,125,0,0,-0.009103,0.005439,-0.309585,0.004439,0.100536,0.022013,2.6278,-3.6047,8.9862
12448,11.0,-0.005803,0.000605,-0.309561,-0.005752,-0.000539,0.013387,-4.4059,-1.3774,-0.0011,0.00003720,0.00057222,-0.13168237,-0.00583236,0.01267924,-0.02206970,-0.2769,0.7267,-9.8485,0.005627,-0.026621,-0.013247,28.0787,16.5023,34.4958,-3.4931,0.3100,118,0,0,-0.008948,0.005649,-0.309138,0.007965,0.101123,0.023212,2.6750,-3.6500,9.1285
12459,11.0,-0.005704,0.000583,-0.309668,-0.004013,-0.001354,0.010546,-4.4206,-1.3981,-0.0001,0.00004218,0.00064445,-0.13167727,-0.00579383,0.01257457,-0.02062689,-0.2547,0.7043,-9.7911,-0.019062,-0.020801,-0.015878,28.0787,16.5023,34.4958,-3.4931,0.3110,116,0,0,-0.008845,0.005735,-0.308787,0.009599,0.100955,0.025047,2.6438,-3.6585,9.1740
12470,11.0,-0.005598,0.000567,-0.309551,-0.002454,-0.001134,0.010818,-4.4294,-1.4188,-0.0009,0.00004353,0.00071090,-0.13167235,-0.00580679,0.01257484,-0.02062643,-0.2603,0.7896,-9.7716,-0.010703,-0.022819,-0.015551,28.0787,16.5023,34.4958,-3.4931,0.3110,119,0,0,-0.008740,0.005793,-0.309420,0.011290,0.101126,0.016256,2.6748,-3.6920,9.2749
12481,11.0,-0.005416,0.000563,-0.309342,-0.000524,-0.000404,0.010588,-4.4306,-1.4554,-0.0027,0.00004147,0.00080539,-0.13166499,-0.00584180,0.01261501,-0.02118630,-0.2983,0.8405,-9.9196,0.000529,-0.040810,-0.015275,28.0787,16.5023,34.4958,-3.4931,0.3110,114,0,0,-0.008490,0.005930,-0.308992,0.014284,0.102650,0.019091,2.6960,-3.7005,8.9591
12492,11.0,-0.005773,0.000061,-0.309091,-0.005002,-0.004749,0.010018,-4.4780,-1.4390,0.0211,0.00027047,0.00064809,-0.13168538,-0.00585029,0.01270140,-0.02199237,-0.3019,0.9200,-9.9954,-0.010078,-0.026091,-0.001698,28.0787,16.5023,34.4958,-3.4350,0.3100,112,-1,-1,-0.008682,0.005510,-0.308813,0.011646,0.097630,0.018648,2.6305,-3.7014,9.0331
12503,11.0,-0.005787,0.000022,-0.308931,-0.004899,-0.003102,0.009198,-4.4930,-1.4330,-0.0014,0.00026872,0.00066787,-0.13168363,-0.00586338,0.01272598,-0.02232367,-0.2919,0.9341,-9.9245,-0.020762,0.004984,0.002591,28.0787,16.5023,34.4958,-3.4350,0.3100,112,0,0,-0.008841,0.005104,-0.308666,0.009591,0.096259,0.014880,2.5878,-3.7242,9.2179
12514,11.0,-0.006378,-0.000016,-0.308828,-0.011506,-0.001467,0.009623,-4.5095,-1.3693,0.0220,0.00027490,0.00042236,-0.13170588,-0.00583479,0.01272673,-0.02232478,-0.2915,0.9408,-9.7470,-0.020837,0.026413,0.005989,28.0787,16.5023,34.4958,-3.4350,0.3100,110,-1,0,-0.008861,0.005116,-0.308442,0.009308,0.098586,0.015987,2.6137,-3.7343,9.3336
12525,11.0,-0.006485,-0.000036,-0.309346,-0.011849,-0.000078,0.002903,-4.5183,-1.3498,-0.0009,0.00028002,0.00043401,-0.13170499,-0.00572230,0.01245557,-0.01889348,-0.2941,0.9172,-9.7305,-0.008614,0.022388,0.026003,28.0787,16.5023,34.4958,-3.4350,0.3110,112,0,0,-0.009379,0.005057,-0.308285,0.003186,0.098831,0.017242,2.5446,-3.6887,9.4309
12537,12.0,-0.006547,-0.000022,-0.309314,-0.011596,-0.000014,0.002532,-4.5126,-1.3427,-0.0042,0.00027270,0.00047327,-0.13170114,-0.00572755,0.01245463,-0.01889382,-0.2970,0.7776,-9.8259,0.010690,0.007034,0.033577,27.2911,17.2154,33.2778,-3.4350,0.3110,114,0,0,-0.009537,0.005121,-0.309142,0.002528,0.101255,0.008149,2.5157,-3.6706,9.6467
12548,11.0,-0.006621,0.000006,-0.309212,-0.011707,-0.000742,0.002845,-4.5013,-1.3323,-0.0031,0.00025649,0.00050028,-0.13169821,-0.00574520,0.01248972,-0.01932431,-0.3073,0.6868,-9.8580,0.017872,0.011373,0.025080,27.2911,17.2154,33.2778,-3.4350,0.3110,106,0,0,-0.009577,0.005183,-0.309059,0.002863,0.102022,0.008888,2.5584,-3.6848,9.7784
12559,11.0,-0.006766,0.000048,-0.307963,-0.012427,-0.001837,0.016925,-4.4814,-1.3076,-0.0011,0.00022657,0.00049175,-0.13169792,-0.00596095,0.01305442,-0.02584230,-0.2854,0.6216,-9.8166,0.026916,0.025751,0.013592,27.2911,17.2154,33.2778,-3.4350,0.3080,105,0,0,-0.009723,0.005334,-0.308780,0.002816,0.100999,0.010734,2.5800,-3.6759,9.9864
12570,11.0,-0.006876,0.000080,-0.307731,-0.012494,-0.002635,0.018133,-4.4651,-1.2921,-0.0021,0.00019758,0.00050536,-0.13169587,-0.00597087,0.01307098,-0.02608043,-0.2645,0.6392,-9.7505,0.021938,0.018349,-0.002460,27.2911,17.2154,33.2778,-3.3821,0.3080,107,0,0,-0.009855,0.005410,-0.307636,0.002428,0.099874,0.022672,2.5681,-3.6466,10.0562
12581,11.0,-0.006884,0.000077,-0.307531,-0.011556,-0.003981,0.018151,-4.4679,-1.2958,-0.0024,0.00018028,0.00056894,-0.13169044,-0.00598018,0.01306856,-0.02608162,-0.2796,0.6170,-9.8134,-0.005445,-0.000268,0.001271,27.2911,17.2154,33.2778,-3.3821,0.3080,106,0,0,-0.009956,0.005479,-0.307356,0.002476,0.099634,0.024651,2.6190,-3.6495,10.1667
12592,11.0,-0.006826,0.000066,-0.307109,-0.009681,-0.004495,0.020107,-4.4720,-1.3131,-0.0023,0.00016190,0.00065895,-0.13168313,-0.00603201,0.01316760,-0.02727604,-0.2528,0.6962,-9.8713,-0.008169,-0.014805,-0.011267,27.2911,17.2154,33.2778,-3.3821,0.3080,105,0,0,-0.009940,0.005595,-0.306782,0.004924,0.098353,0.026688,2.6373,-3.6309,9.9293
12603,11.0,-0.006787,0.000039,-0.306893,-0.008206,-0.003832,0.019110,-4.4819,-1.3239,-0.0022,0.00015203,0.00073016,-0.13167734,-0.00604036,0.01316655,-0.02727703,-0.2504,0.8240,-9.8916,-0.015117,-0.008782,-0.015059,27.2911,17.2154,33.2778,-3.3821,0.3110,112,0,0,-0.009878,0.005658,-0.308679,0.006440,0.098044,0.003631,2.5800,-3.6259,9.9855
12613,10.0,-0.006814,-0.000007,-0.306647,-0.007751,-0.002648,0.020135,-4.5021,-1.3170,-0.0009,0.00015930,0.00075801,-0.13167532,-0.00605337,0.01319112,-0.02756754,-0.2513,0.9113,-9.7561,-0.030304,0.009821,-0.000959,27.2911,17.2154,33.2778,-3.3821,0.3110,112,0,0,-0.009829,0.005700,-0.308645,0.007586,0.099428,0.003689,2.6073,-3.6481,10.0793
12624,11.0,-0.006877,-0.000021,-0.308332,-0.007673,-0.000631,-0.000255,-4.5048,-1.3057,-0.0011,0.00015523,0.00077346,-0.13167389,-0.00573299,0.01237525,-0.01753636,-0.2454,0.9456,-9.6021,-0.001114,0.012107,0.008564,27.6890,16.8477,32.8869,-3.3610,0.3110,111,0,0,-0.009860,0.005740,-0.308494,0.007424,0.102096,0.007438,2.5567,-3.6377,10.2445
12636,12.0,-0.006380,0.000001,-0.308289,-0.001501,0.001547,0.001605,-4.4896,-1.3478,-0.0251,0.00014705,0.00106728,-0.13164698,-0.00579560,0.01239053,-0.01773899,-0.2757,0.9379,-9.6633,0.023795,-0.010205,0.016183,27.6890,16.8477,32.8869,-3.3610,0.3080,105,1,0,-0.009894,0.005792,-0.307594,0.007146,0.103277,0.019310,2.5022,-3.6167,10.3025
12647,11.0,-0.006288,0.000034,-0.308273,-0.001087,0.002315,0.001445,-4.4746,-1.3639,-0.0052,0.00014083,0.00112395,-0.13164160,-0.00580594,0.01238948,-0.01773975,-0.3170,0.8377,-9.8031,0.026463,-0.024004,0.028343,27.6890,16.8477,32.8869,-3.3610,0.3080,109,0,0,-0.009395,0.006054,-0.307168,0.012147,0.106975,0.023539,2.5075,-3.6515,10.4642
12658,11.0,-0.006239,0.000053,-0.309169,-0.001497,0.002310,-0.009311,-4.4694,-1.3695,-0.0028,0.00014447,0.00115961,-0.13163848,-0.00566742,0.01198622,-0.01306208,-0.3471,0.7841,-9.8025,0.013434,-0.011987,0.028553,27.6890,16.8477,32.8869,-3.3610,0.3110,122,0,0,-0.009310,0.006157,-0.306871,0.012351,0.107971,0.025164,2.5514,-3.6815,10.5868
12669,11.0,-0.006236,0.000082,-0.309274,-0.002035,0.001570,-0.009704,-4.4605,-1.3662,-0.0011,0.00014064,0.00117218,-0.13163726,-0.00566945,0.01198563,-0.01306239,-0.3156,0.7040,-9.8301,0.017132,-0.002976,0.024809,27.6890,16.8477,32.8869,-3.3610,0.3110,122,0,0,-0.009257,0.006251,-0.308678,0.011985,0.107333,0.003375,2.4949,-3.6786,10.6783
12680,11.0,-0.006258,0.000113,-0.309335,-0.002925,0.000826,-0.009702,-4.4491,-1.3586,-0.0006,0.00013077,0.00117453,-0.13163674,-0.00567791,0.01200671,-0.01331588,-0.3267,0.6914,-9.8479,0.019507,0.002525,0.013059,27.6890,16.8477,32.8869,-3.3610,0.3110,120,0,0,-0.009250,0.006425,-0.308562,0.010970,0.105937,0.004956,2.5218,-3.6512,10.4432
12691,11.0,-0.006278,0.000144,-0.308104,-0.003664,0.000247,0.004437,-4.4357,-1.3523,-0.0009,0.00011557,0.00118016,-0.13163579,-0.00589995,0.01260765,-0.02011675,-0.3261,0.7033,-9.9363,0.020267,0.001575,0.000069,27.6890,16.8477,32.8869,-3.3610,0.3080,127,0,0,-0.009278,0.006514,-0.308515,0.010202,0.105510,0.005109,2.5659,-3.6606,10.5601
12702,11.0,-0.006271,0.000112,-0.308027,-0.003587,-0.000132,0.003304,-4.4558,-1.3492,-0.0002,0.00013329,0.00120621,-0.13163427,-0.00590862,0.01262583,-0.02030660,-0.2859,0.7830,-9.9395,-0.024850,0.001415,0.002860,27.6890,16.8477,32.8869,-3.3610,0.3080,130,0,0,-0.009287,0.006653,-0.307472,0.009500,0.104831,0.013693,2.5592,-3.6606,10.7382
12713,11.0,-0.006297,0.000052,-0.307989,-0.003371,-0.000557,0.003550,-4.4915,-1.3365,0.0011,0.00016473,0.00121297,-0.13163473,-0.00590922,0.01262872,-0.02030529,-0.2300,0.7964,-9.7740,-0.046292,0.011526,0.013321,27.6890,16.8477,32.8869,-3.3081,0.3080,120,0,0,-0.009269,0.006682,-0.307315,0.009646,0.104289,0.013776,2.4848,-3.6440,10.8064
12724,11.0,-0.006301,0.000045,-0.308484,-0.002709,-0.000604,-0.001449,-4.4971,-1.3323,-0.0008,0.00016531,0.00123078,-0.13163328,-0.00581904,0.01239681,-0.01761425,-0.2042,0.7679,-9.6805,-0.005011,0.000467,0.013365,28.8717,17.2154,33.6915,-3.3081,0.3100,126,0,0,-0.009275,0.006687,-0.307174,0.009835,0.104190,0.015189,2.4835,-3.6491,10.9259
12735,11.0,-0.006274,0.000088,-0.308499,-0.002159,-0.000909,-0.001322,-4.4760,-1.3376,-0.0019,0.00013664,0.00126106,-0.13163000,-0.00582275,0.01239347,-0.01761585,-0.2433,0.6968,-9.7896,0.030834,-0.011211,0.002699,28.8717,17.2154,33.6915,-3.3081,0.3100,126,0,0,-0.009268,0.006807,-0.308202,0.010424,0.103510,0.005552,2.4477,-3.6395,11.1114
12746,11.0,-0.006284,0.000103,-0.308486,-0.002193,-0.001107,-0.001044,-4.4692,-1.3326,-0.0006,0.00012188,0.00126889,-0.13162896,-0.00582843,0.01240390,-0.01775983,-0.2535,0.7316,-9.8037,0.010907,0.000202,0.005216,28.8717,17.2154,33.6915,-3.3081,0.3100,120,0,0,-0.009683,0.006824,-0.308149,0.005739,0.101831,0.006469,2.4173,-3.6100,11.1915
12757,11.0,-0.006316,0.000098,-0.307124,-0.002428,-0.001536,0.015175,-4.4733,-1.3207,0.0002,0.00011697,0.00126166,-0.13162941,-0.00604693,0.01296788,-0.02450230,-0.2464,0.7259,-9.7793,-0.004941,0.007527,0.003390,28.8717,17.2154,33.6915,-3.3081,0.3070,116,0,0,-0.009692,0.006895,-0.308048,0.006165,0.102041,0.007739,2.4510,-3.6220,11.2960
12768,11.0,-0.006261,0.000095,-0.306938,-0.001880,-0.002021,0.015098,-4.4759,-1.3285,-0.0012,0.00010731,0.00130700,-0.13162564,-0.00605542,0.01297569,-0.02461043,-0.2707,0.7176,-9.8361,-0.002865,-0.012433,0.005079,28.8717,17.2154,33.6915,-3.3081,0.3070,116,0,0,-0.009720,0.006998,-0.306660,0.006921,0.101137,0.021678,2.4258,-3.6110,11.4569
12779,11.0,-0.006151,0.000125,-0.306779,-0.000329,-0.001955,0.013725,-4.4589,-1.3499,-0.0017,0.00007722,0.00137670,-0.13161951,-0.00606154,0.01297326,-0.02461252,-0.2292,0.7367,-9.9306,0.024091,-0.028667,0.001580,28.8717,17.2154,33.6915,-3.3081,0.3070,112,0,0,-0.009662,0.007073,-0.306419,0.007809,0.100590,0.022421,2.3774,-3.6054,11.5141
12790,11.0,-0.006041,0.000175,-0.307339,0.000881,-0.001582,0.003384,-4.4312,-1.3717,-0.0016,0.00003647,0.00143977,-0.13161367,-0.00596238,0.01270009,-0.02122466,-0.2501,0.7491,-10.0032,0.039034,-0.030258,-0.002134,28.8717,17.2154,33.6915,-3.3980,0.3090,118,0,0,-0.009569,0.007170,-0.306198,0.009510,0.101449,0.022366,2.4394,-3.6014,11.1364
12801,11.0,-0.005988,0.000208,-0.307315,0.001161,-0.000592,0.001002,-4.4113,-1.3790,-0.0009,0.00000974,0.00146442,-0.13161106,-0.00596280,0.01269977,-0.02122588,-0.2673,0.8266,-10.0114,0.029501,-0.015791,0.006922,28.8717,17.2154,33.6915,-3.3980,0.3090,111,0,0,-0.009395,0.007402,-0.307150,0.011665,0.103059,0.006635,2.4480,-3.6275,11.2872
12812,11.0,-0.005986,0.000224,-0.307253,0.000695,0.000128,0.000063,-4.4032,-1.3732,-0.0000,-0.00000067,0.00145929,-0.13161120,-0.00597141,0.01272337,-0.02152785,-0.2786,0.8242,-9.9465,0.014294,-0.001771,0.016266,28.8717,17.2154,33.6915,-3.3980,0.3090,113,0,0,-0.009355,0.007503,-0.307096,0.011789,0.103518,0.005467,2.4069,-3.6179,11.3456
12823,11.0,-0.006010,0.000236,-0.307121,-0.000272,0.000535,0.000223,-4.3983,-1.3618,0.0004,-0.00000546,0.00144330,-0.13161235,-0.00599032,0.01277522,-0.02219098,-0.3025,0.8032,-9.9283,0.010440,0.004790,0.018407,28.8717,17.2154,33.6915,-3.3980,0.3080,109,0,0,-0.009341,0.007582,-0.306969,0.011605,0.104601,0.005823,2.4395,-3.6299,11.4533
12834,11.0,-0.006093,-0.000208,-0.307076,-0.001516,-0.005015,0.000103,-4.4153,-1.3408,0.0054,0.00024335,0.00140062,-0.13162248,-0.00599730,0.01278876,-0.02241404,-0.2731,0.7273,-9.8650,0.026063,0.015046,0.012013,26.8906,16.5098,32.4047,-3.3980,0.3080,109,0,-1,-0.009397,0.007713,-0.306954,0.009768,0.104348,0.004810,2.4093,-3.6112,11.6408
12845,11.0,-0.006213,-0.000181,-0.307075,-0.003293,-0.004111,-0.000032,-4.3955,-1.3132,0.0004,0.00019757,0.00134536,-0.13162555,-0.00599766,0.01278905,-0.02241443,-0.2951,0.7662,-9.8117,0.025878,0.023179,0.013078,26.8906,16.5098,32.4047,-3.3980,0.3080,106,0,0,-0.009378,0.007358,-0.306912,0.009708,0.098600,0.005068,2.3495,-3.5836,11.7184
12856,11.0,-0.006369,-0.000166,-0.308083,-0.004799,-0.003402,-0.011128,-4.3829,-1.2789,0.0010,0.00016195,0.00127978,-0.13162974,-0.00586255,0.01241412,-0.01764674,-0.2432,0.7608,-9.7383,0.016640,0.031661,0.016992,26.8906,16.5098,32.4047,-3.4561,0.3100,106,0,0,-0.009470,0.007426,-0.306861,0.008210,0.099248,0.005762,2.3882,-3.5779,11.8311
12867,11.0,-0.006487,-0.000142,-0.308202,-0.006521,-0.002803,-0.010522,-4.3672,-1.2543,-0.0000,0.00012732,0.00124686,-0.13163133,-0.00586145,0.01241298,-0.01764718,-0.3195,0.7484,-9.7401,0.021551,0.022627,0.016230,26.8906,16.5098,32.4047,-3.4561,0.3100,109,0,0,-0.009730,0.007531,-0.308223,0.004741,0.099375,-0.005903,2.3697,-3.5255,12.0241
12878,11.0,-0.006550,-0.000625,-0.308239,-0.007392,-0.008302,-0.010305,-4.3995,-1.2408,0.0064,0.00038087,0.00125552,-0.13163821,-0.00587294,0.01245067,-0.01803970,-0.3162,0.7287,-9.8680,0.001597,0.012933,0.017879,26.8906,16.5098,32.4047,-3.4561,0.3100,105,0,-1,-0.009843,0.007592,-0.308196,0.003139,0.098893,-0.003436,2.3276,-3.4957,12.0999
12889,11.0,-0.006679,-0.000680,-0.307623,-0.009089,-0.007945,-0.002167,-4.4213,-1.2105,-0.0001,0.00036093,0.00123090,-0.13163950,-0.00597142,0.01271796,-0.02144378,-0.3303,0.7621,-9.8301,-0.035221,0.033211,0.014695,26.8906,16.5098,32.4047,-3.4561,0.3080,105,0,0,-0.009871,0.007234,-0.308269,0.002567,0.093833,-0.002680,2.2920,-3.4425,11.8405
12900,11.0,-0.006856,-0.000720,-0.307577,-0.010586,-0.007243,-0.000237,-4.4350,-1.1733,0.0001,0.00033501,0.00118915,-0.13164195,-0.00597849,0.01274046,-0.02174742,-0.2713,0.7770,-9.6919,-0.023401,0.041143,0.011689,26.8906,16.5098,32.4047,-3.4561,0.3080,107,0,0,-0.009984,0.007213,-0.307531,0.001025,0.093984,0.006303,2.2920,-3.4286,11.9538
12911,11.0,-0.006925,-0.000727,-0.307573,-0.010618,-0.005281,0.000898,-4.4285,-1.1631,-0.0019,0.00029723,0.00121767,-0.13163848,-0.00598062,0.01273783,-0.02174900,-0.2598,0.8725,-9.6878,0.006101,0.012209,0.006973,26.8906,16.5098,32.4047,-3.4561,0.3080,107,0,0,-0.010230,0.007214,-0.307285,-0.001178,0.094136,0.011245,2.2307,-3.3800,12.1386
12922,11.0,-0.006450,-0.000711,-0.308303,-0.004418,-0.003580,-0.006309,-4.4127,-1.2005,-0.0147,0.00025760,0.00155723,-0.13160892,-0.00590602,0.01246176,-0.01832419,-0.2524,0.8424,-9.6562,0.020907,-0.003838,0.012667,26.8906,16.5098,32.4047,-3.4561,0.3100,116,1,0,-0.009845,0.007359,-0.307170,0.003562,0.096135,0.013298,2.1742,-3.3787,12.1864
12933,11.0,-0.006443,-0.000230,-0.308368,-0.004440,0.002670,-0.005541,-4.3778,-1.1998,-0.0082,-0.00003784,0.00158998,-0.13159747,-0.00590980,0.01243062,-0.01833348,-0.2727,0.7965,-9.7236,0.002767,-0.002439,0.018307,27.2884,17.2228,34.0821,-3.5089,0.3100,116,0,1,-0.009942,0.007866,-0.308365,0.002374,0.102595,0.001466,2.2169,-3.3882,12.2910
12945,12.0,-0.006403,-0.000219,-0.308324,-0.004523,0.001619,-0.003270,-4.3798,-1.2067,-0.0015,-0.00002895,0.00164680,-0.13159314,-0.00593230,0.01247235,-0.01882394,-0.3108,0.6817,-9.7166,0.001623,-0.010058,0.018805,27.2884,17.2228,34.0821,-3.5089,0.3100,118,0,0,-0.010011,0.008445,-0.308212,0.001609,0.106362,0.005813,2.1950,-3.3888,12.4693
12956,11.0,-0.006339,-0.000205,-0.308174,-0.003948,0.000568,0.000376,-4.3781,-1.2184,-0.0013,-0.00003002,0.00171404,-0.13158786,-0.00596755,0.01253883,-0.01962485,-0.2791,0.6532,-9.6599,0.005564,-0.015591,0.015902,27.2884,17.2228,34.0821,-3.5089,0.3090,113,0,0,-0.009974,0.008526,-0.308143,0.001993,0.104449,0.007524,2.1417,-3.3855,12.5468
12967,11.0,-0.006261,-0.000179,-0.308083,-0.003089,0.000056,0.002793,-4.3675,-1.2340,-0.0012,-0.00004382,0.00178476,-0.13158210,-0.00599059,0.01256726,-0.01999494,-0.2611,0.6800,-9.6703,0.017050,-0.020217,0.003649,27.2884,17.2228,34.0821,-3.5089,0.3090,122,0,0,-0.009855,0.008709,-0.307955,0.003937,0.101959,0.012002,2.1152,-3.4026,12.7223
12978,11.0,-0.006168,-0.000149,-0.308050,-0.002489,-0.000660,0.003088,-4.3550,-1.2519,-0.0006,-0.00006394,0.00186014,-0.13157597,-0.00600189,0.01256447,-0.01999728,-0.2970,0.6566,-9.7783,0.019166,-0.023278,0.008807,27.2884,17.2228,34.0821,-3.5089,0.3090,122,0,0,-0.009786,0.008807,-0.307705,0.004927,0.101509,0.015564,2.1417,-3.4256,12.8218
12990,12.0,-0.006014,-0.000157,-0.308514,-0.000852,-0.001577,-0.003367,-4.3619,-1.2814,0.0005,-0.00006809,0.00196943,-0.13156807,-0.00594324,0.01238731,-0.01779955,-0.2608,0.6792,-9.8645,-0.007351,-0.033363,0.015314,27.2884,17.2228,34.0821,-3.5089,0.3100,120,0,0,-0.009706,0.008913,-0.307552,0.005841,0.100368,0.016690,2.1243,-3.3994,12.4467
13001,11.0,-0.005899,-0.000181,-0.308556,-0.000039,-0.002838,-0.004308,-4.3777,-1.2979,0.0012,-0.00006786,0.00204368,-0.13156299,-0.00595103,0.01238750,-0.01780139,-0.2849,0.6508,-9.8895,-0.021904,-0.021760,0.015843,27.2884,17.2228,34.0821,-3.5089,0.3100,122,0,0,-0.009430,0.009073,-0.308437,0.008884,0.098638,0.005198,2.0689,-3.4357,12.6183
13012,11.0,-0.005793,-0.000180,-0.308478,0.000547,-0.003563,-0.004980,-4.3775,-1.3138,0.0009,-0.00009025,0.00210661,-0.13155815,-0.00597572,0.01243409,-0.01843415,-0.2916,0.6718,-10.0144,-0.000531,-0.022451,0.009770,27.2884,17.2228,34.0821,-3.6041,0.3100,121,0,0,-0.009315,0.009133,-0.308388,0.009832,0.097842,0.005139,2.0711,-3.4590,12.7217
13023,11.0,-0.005767,-0.000206,-0.308798,-0.000559,-0.004110,-0.009840,-4.3904,-1.3116,0.0001,-0.00010090,0.00212420,-0.13155665,-0.00593945,0.01235088,-0.01731366,-0.3647,0.7067,-9.9717,-0.019390,-0.001546,0.007105,27.2884,17.2228,34.0821,-3.6041,0.3100,120,0,0,-0.009135,0.009277,-0.308794,0.010226,0.096121,-0.002569,2.0259,-3.4753,12.8903
13034,11.0,-0.005819,-0.000225,-0.308804,-0.002186,-0.004417,-0.009147,-4.3986,-1.2942,-0.0012,-0.00011798,0.00210026,-0.13155764,-0.00595500,0.01238461,-0.01779392,-0.3384,0.7089,-9.8506,-0.013185,0.014495,0.008669,28.4739,17.2228,34.4958,-3.6041,0.3100,114,0,0,-0.009115,0.009314,-0.308715,0.009195,0.094907,-0.002025,1.9607,-3.4626,12.9634
13045,11.0,-0.005865,0.000252,-0.308906,-0.003627,0.000918,-0.009385,-4.3689,-1.2808,-0.0123,-0.00042794,0.00209085,-0.13154747,-0.00595493,0.01237747,-0.01779869,-0.3442,0.7102,-9.8194,-0.007141,0.011713,0.001401,28.4739,17.2228,34.4958,-3.6041,0.3100,116,0,1,-0.009149,0.009342,-0.308736,0.007766,0.094397,-0.001718,1.9659,-3.4584,13.0703
13056,11.0,-0.005879,0.000267,-0.308936,-0.003926,0.000636,-0.008668,-4.3641,-1.2767,0.0003,-0.00043167,0.00210758,-0.13154623,-0.00596659,0.01239914,-0.01811774,-0.2823,0.7279,-9.8101,0.009496,0.001438,0.001596,28.4739,17.2228,34.4958,-3.6041,0.3100,112,0,0,-0.009417,0.010297,-0.308973,0.003350,0.102395,-0.002421,1.9576,-3.4353,13.2287
13067,11.0,-0.005909,0.000287,-0.309032,-0.004106,0.000661,-0.008685,-4.3552,-1.2705,-0.0001,-0.00044027,0.00211637,-0.13154536,-0.00596683,0.01239894,-0.01811811,-0.2563,0.7461,-9.7990,0.015067,0.003774,-0.001301,28.4739,17.2228,34.4958,-3.6041,0.3100,118,0,0,-0.009432,0.010370,-0.308998,0.003150,0.101030,-0.001704,1.9062,-3.4179,13.2958
13078,11.0,-0.006006,0.000303,-0.308991,-0.005512,0.000531,-0.007337,-4.3496,-1.2502,-0.0007,-0.00044507,0.00208824,-0.13154709,-0.00598852,0.01243939,-0.01873068,-0.3041,0.7382,-9.8248,0.010319,0.019587,-0.006397,28.4739,17.2228,34.4958,-3.6041,0.3100,116,0,0,-0.009458,0.010439,-0.308873,0.003026,0.100694,0.000728,1.9255,-3.4212,13.3960
13089,11.0,-0.006115,0.000293,-0.309051,-0.006422,-0.000045,-0.007285,-4.3580,-1.2267,-0.0003,-0.00043713,0.00206056,-0.13154922,-0.00599133,0.01244576,-0.01882444,-0.2554,0.7190,-9.8188,-0.009474,0.024470,-0.000533,28.4739,17.2228,34.4958,-3.5089,0.3100,116,0,0,-0.009632,0.010535,-0.308855,0.001204,0.098883,0.001862,1.9104,-3.3534,13.0724
13100,11.0,-0.006142,0.000276,-0.309052,-0.006517,0.000154,-0.006128,-4.3682,-1.2208,0.0007,-0.00042565,0.00208803,-0.13154766,-0.00600492,0.01246921,-0.01917438,-0.2722,0.7935,-9.7752,-0.011828,0.006612,-0.002905,28.4739,17.2228,34.4958,-3.5089,0.3100,116,0,0,-0.009723,0.010564,-0.309079,0.000616,0.097362,-0.000010,1.8464,-3.3188,13.1386
13111,11.0,-0.006177,0.000269,-0.309116,-0.006154,0.000371,-0.005549,-4.3729,-1.2139,0.0003,-0.00041984,0.00211012,-0.13154624,-0.00600581,0.01246948,-0.01917488,-0.2190,0.7851,-9.7436,-0.003947,0.006587,0.005640,28.4739,17.2228,34.4958,-3.5089,0.3100,114,0,0,-0.009756,0.010595,-0.309076,0.000431,0.097120,0.000985,1.8483,-3.3177,13.2350
13122,11.0,-0.006070,0.000291,-0.309585,-0.004859,0.001365,-0.011927,-4.3612,-1.2385,-0.0005,-0.00042885,0.00221819,-0.13153791,-0.00594678,0.01235534,-0.01748471,-0.2829,0.8491,-9.9491,0.019220,-0.027377,0.001832,28.4739,17.2228,34.4958,-3.5089,0.3110,108,0,0,-0.009763,0.010715,-0.308919,0.001454,0.096923,0.003885,1.8035,-3.3080,13.3928
13133,11.0,-0.005993,0.000282,-0.309725,-0.004380,0.001980,-0.013624,-4.3683,-1.2520,-0.0007,-0.00041136,0.00229904,-0.13153216,-0.00594600,0.01235535,-0.01748690,-0.3166,0.8553,-9.9419,-0.005110,-0.016376,0.023223,26.4981,16.5023,34.4958,-3.5089,0.3110,112,0,0,-0.009672,0.010816,-0.309770,0.002524,0.097217,-0.006149,1.7489,-3.3105,13.4517
13144,11.0,-0.005971,0.000287,-0.309781,-0.004794,0.001310,-0.013982,-4.3710,-1.2545,-0.0002,-0.00040272,0.00234489,-0.13152893,-0.00596004,0.01238744,-0.01793460,-0.3402,0.7239,-9.9417,0.000259,-0.004851,0.019954,26.4981,16.5023,34.4958,-3.5089,0.3110,105,0,0,-0.009536,0.010955,-0.309819,0.002898,0.097187,-0.006452,1.6950,-3.3283,13.6356
13156,12.0,-0.006036,0.000325,-0.309443,-0.006040,0.001149,-0.007624,-4.3535,-1.2420,-0.0004,-0.00041681,0.00234316,-0.13152860,-0.00603254,0.01254237,-0.02003692,-0.3238,0.7198,-9.7535,0.025746,0.009244,0.010734,26.4981,16.5023,34.4958,-3.4878,0.3100,107,0,0,-0.009522,0.011017,-0.309766,0.002453,0.096483,-0.005487,1.7037,-3.3359,13.7441
13167,11.0,-0.006119,0.000379,-0.309446,-0.006658,0.001226,-0.005420,-4.3275,-1.2287,-0.0006,-0.00044280,0.00233423,-0.13152844,-0.00604351,0.01256585,-0.02035354,-0.2576,0.7104,-9.6815,0.039165,0.011538,0.004719,26.4981,16.5023,34.4958,-3.4878,0.3100,103,0,0,-0.009646,0.011171,-0.309550,0.000474,0.094760,0.000200,1.6927,-3.3154,13.9261
13178,11.0,-0.006171,0.000396,-0.309495,-0.006781,0.000446,-0.003569,-4.3227,-1.2196,-0.0000,-0.00044783,0.00234821,-0.13152727,-0.00604412,0.01256568,-0.02035403,-0.2479,0.6606,-9.6376,0.009162,0.008793,0.007442,26.4981,16.5023,34.4958,-3.4878,0.3100,107,0,0,-0.009725,0.011249,-0.309447,-0.000108,0.093621,0.003205,1.6592,-3.2898,13.9952
13189,11.0,-0.006201,0.000398,-0.309752,-0.006688,-0.000402,-0.004008,-4.3253,-1.2144,0.0003,-0.00044905,0.00237716,-0.13152520,-0.00601327,0.01249361,-0.01940632,-0.2502,0.6580,-9.6039,-0.001933,0.005579,0.005648,26.4981,16.5023,34.4958,-3.4878,0.3110,107,0,0,-0.009776,0.011305,-0.309406,-0.000058,0.092852,0.005599,1.6958,-3.2616,13.6252
13200,11.0,-0.006198,0.000437,-0.309793,-0.006565,-0.001319,-0.003453,-4.3070,-1.2187,0.0005,-0.00048030,0.00242541,-0.13152106,-0.00601714,0.01249128,-0.01940829,-0.2844,0.6119,-9.7577,0.025768,-0.005348,-0.005735,26.4981,16.5023,34.4958,-3.4878,0.3110,112,0,0,-0.009837,0.011416,-0.309867,0.000008,0.090412,0.004356,1.6565,-3.2417,13.7917
13211,11.0,-0.006196,0.000476,-0.309744,-0.006348,-0.001865,-0.003851,-4.2875,-1.2231,0.0008,-0.00051583,0.00247169,-0.13151705,-0.00603310,0.01251938,-0.01981238,-0.2775,0.6494,-9.9456,0.026594,-0.005389,-0.009967,26.4981,16.5023,34.4958,-3.4878,0.3110,103,0,0,-0.009842,0.011506,-0.309823,0.000203,0.089136,0.005403,1.6269,-3.2315,13.8532
13223,12.0,-0.006286,0.000486,-0.309945,-0.007397,-0.001728,-0.007017,-4.2793,-1.2073,-0.0005,-0.00053695,0.00246724,-0.13151671,-0.00601321,0.01247603,-0.01922096,-0.2978,0.7339,-9.9235,0.010447,0.016068,-0.014481,26.8933,16.1421,32.8412,-3.4878,0.3110,110,0,0,-0.009903,0.011647,-0.310029,-0.000158,0.088268,0.001423,1.6093,-3.2177,13.9963
13234,11.0,-0.006421,0.000452,-0.309946,-0.007891,-0.001387,-0.005779,-4.2962,-1.1798,-0.0006,-0.00052584,0.00243437,-0.13151923,-0.00602244,0.01249809,-0.01952921,-0.2015,0.7913,-9.7639,-0.022862,0.030901,-0.005858,26.8933,16.1421,32.8412,-3.4878,0.3110,109,0,0,-0.009992,0.011667,-0.309927,-0.001247,0.088549,0.002622,1.6162,-3.2060,14.0849
13245,11.0,-0.006516,0.000439,-0.309998,-0.008164,-0.000864,-0.003509,-4.3023,-1.1616,-0.0001,-0.00052526,0.00242993,-0.13151956,-0.00602215,0.01249812,-0.01952906,-0.2210,0.7802,-9.5902,-0.007211,0.020128,0.008105,26.8933,16.1421,32.8412,-3.4878,0.3110,119,0,0,-0.010101,0.011666,-0.309901,-0.001940,0.088003,0.003725,1.5464,-3.1667,14.1443
13256,11.0,-0.006510,0.000447,-0.310532,-0.007369,-0.000282,-0.006594,-4.2973,-1.1660,0.0004,-0.00053566,0.00249014,-0.13151500,-0.00596334,0.01235275,-0.01746852,-0.2274,0.7658,-9.5393,0.008288,-0.004279,0.009728,26.8933,16.1421,32.8412,-3.4878,0.3120,119,0,0,-0.010199,0.011674,-0.309854,-0.002505,0.088156,0.006343,1.5469,-3.1532,14.2410
13267,11.0,-0.006289,0.000465,-0.310597,-0.004645,-0.000603,-0.005341,-4.2893,-1.2133,0.0020,-0.00055074,0.00267267,-0.13150179,-0.00598411,0.01235154,-0.01747456,-0.2670,0.6841,-9.6871,0.012512,-0.051098,0.013034,26.8933,16.1421,32.8412,-3.4878,0.3120,115,0,0,-0.010132,0.011810,-0.310758,-0.000781,0.088447,0.001843,1.5035,-3.1573,14.3991
13278,11.0,-0.006076,0.000469,-0.310560,-0.002587,-0.001513,-0.004038,-4.2900,-1.2555,0.0031,-0.00056059,0.00283333,-0.13149068,-0.00601252,0.01237893,-0.01787377,-0.3005,0.6453,-9.7885,-0.000132,-0.046671,0.013421,26.8933,16.1421,32.8412,-3.4878,0.3120,118,0,0,-0.009949,0.011927,-0.310631,0.001512,0.088174,0.005054,1.4611,-3.1782,14.4605
13289,11.0,-0.005916,0.000469,-0.310305,-0.001312,-0.001597,-0.001464,-4.2903,-1.2856,0.0022,-0.00057081,0.00294806,-0.13148265,-0.00605663,0.01246444,-0.01909377,-0.3035,0.7268,-9.8850,0.000136,-0.034810,0.003584,26.8933,16.1421,32.8412,-3.4878,0.3110,121,0,0,-0.009602,0.012118,-0.310456,0.004947,0.087496,0.007516,1.4409,-3.2048,14.1104
13300,11.0,-0.005808,0.000462,-0.310254,-0.000769,-0.000775,-0.001506,-4.2925,-1.3042,0.0007,-0.00057443,0.00302436,-0.13147715,-0.00606977,0.01248557,-0.01939737,-0.3086,0.8205,-9.8755,-0.001614,-0.022975,0.002400,26.8933,16.1421,32.8412,-3.4878,0.3110,126,0,0,-0.009462,0.012201,-0.310304,0.005830,0.087927,0.008304,1.4492,-3.2324,14.2003
13311,11.0,-0.006181,0.000467,-0.310272,-0.005219,0.000232,-0.001789,-4.2891,-1.2916,-0.0001,-0.00057936,0.00280699,-0.13149309,-0.00605883,0.01248479,-0.01939070,-0.2656,0.8314,-9.8181,0.007376,-0.026692,0.013752,26.8933,16.1421,32.8412,-3.4878,0.3110,124,-1,0,-0.009703,0.012227,-0.310022,0.001357,0.087839,0.010048,1.3954,-3.2340,14.3691
13322,11.0,-0.006016,0.000483,-0.310105,-0.002937,0.000929,-0.000057,-4.2812,-1.3258,-0.0008,-0.00058551,0.00294045,-0.13148279,-0.00608553,0.01253833,-0.02014077,-0.2479,0.8013,-9.8366,0.014397,-0.039289,0.021005,26.8933,16.1421,32.8412,-3.4878,0.3110,119,0,0,-0.009599,0.012311,-0.310220,0.002391,0.088377,0.007335,1.3388,-3.2374,14.4354
13333,11.0,-0.005879,0.000504,-0.310108,-0.001305,0.000795,-0.000417,-4.2735,-1.3525,-0.0003,-0.00059253,0.00304340,-0.13147490,-0.00608865,0.01253837,-0.02014395,-0.2599,0.7231,-9.8339,0.014015,-0.032645,0.023860,26.4981,15.4217,34.4958,-3.4878,0.3110,124,0,0,-0.009455,0.012412,-0.310146,0.003944,0.089495,0.007832,1.3526,-3.2683,14.5350
13345,12.0,-0.006344,0.000540,-0.310020,-0.007075,-0.000929,0.000015,-4.2589,-1.3233,-0.0046,-0.00061651,0.00277524,-0.13149260,-0.00609543,0.01256667,-0.02052810,-0.3045,0.5671,-9.8728,0.020157,-0.009203,0.014567,26.4981,15.4217,34.4958,-3.4878,0.3110,119,-1,0,-0.009248,0.012613,-0.309880,0.006039,0.088602,0.009667,1.3236,-3.2939,14.7089
13356,11.0,-0.006387,0.000593,-0.310597,-0.007816,-0.002873,-0.007748,-4.2349,-1.3196,0.0003,-0.00066458,0.00280169,-0.13148957,-0.00603142,0.01240204,-0.01830644,-0.3447,0.4921,-9.9221,0.031702,0.004273,-0.007635,26.4981,15.4217,34.4958,-3.4878,0.3120,116,0,0,-0.009661,0.012591,-0.310696,0.000942,0.085272,-0.000339,1.2907,-3.2658,14.7964
13367,11.0,-0.006499,0.000606,-0.310615,-0.009210,-0.004656,-0.008001,-4.2293,-1.3003,-0.0013,-0.00069974,0.00278944,-0.13148914,-0.00604046,0.01242361,-0.01860236,-0.3408,0.5231,-9.9158,0.004468,0.023007,-0.019147,26.4981,15.4217,34.4958,-3.4878,0.3120,111,0,0,-0.009770,0.012740,-0.310717,-0.000370,0.081237,-0.001319,1.2923,-3.2463,14.9471
13378,11.0,-0.007160,0.000576,-0.310706,-0.016375,-0.005830,-0.008560,-4.2441,-1.2348,-0.0220,-0.00071630,0.00245426,-0.13150601,-0.00604861,0.01242330,-0.01859276,-0.3158,0.6038,-9.8584,-0.024649,0.038691,-0.020331,26.4981,15.4217,34.4958,-3.5248,0.3120,108,-1,0,-0.009882,0.012763,-0.310595,-0.001596,0.079559,-0.000061,1.3014,-3.2297,15.0285
13389,11.0,-0.007304,0.000531,-0.310336,-0.016545,-0.005635,-0.002826,-4.2624,-1.2132,0.0011,-0.00072690,0.00247632,-0.13150451,-0.00610504,0.01253736,-0.02037558,-0.2719,0.7331,-9.7638,-0.029087,0.032352,-0.019067,26.4981,15.4217,34.4958,-3.5248,0.3110,112,0,0,-0.010450,0.012631,-0.310601,-0.007819,0.076479,-0.000014,1.2692,-3.1469,14.5531
13400,11.0,-0.007425,0.000510,-0.310363,-0.015933,-0.004599,-0.002102,-4.2670,-1.1985,0.0014,-0.00074916,0.00251295,-0.13150172,-0.00610495,0.01253752,-0.02037676,-0.2187,0.7932,-9.7310,-0.009727,0.023994,-0.018469,26.4981,15.4217,34.4958,-3.5248,0.3110,111,0,0,-0.010672,0.012595,-0.310403,-0.008641,0.076041,0.004040,1.1951,-3.0971,14.6863
13411,11.0,-0.007530,0.000498,-0.310274,-0.015144,-0.003100,-0.000092,-4.2665,-1.1877,0.0012,-0.00076851,0.00255528,-0.13149850,-0.00611959,0.01256286,-0.02080801,-0.2107,0.8400,-9.7290,-0.001061,0.018968,-0.019689,26.4981,15.4217,34.4958,-3.5248,0.3120,111,0,0,-0.010766,0.012597,-0.310356,-0.008557,0.077081,0.005656,1.1964,-3.0861,14.7671
13422,11.0,-0.007613,0.000493,-0.310706,-0.014704,-0.001663,-0.004173,-4.2642,-1.1804,0.0008,-0.00078367,0.00260874,-0.13149445,-0.00606602,0.01246359,-0.01914159,-0.2559,0.8430,-9.7035,0.002550,0.014495,-0.006229,26.1030,16.5023,34.0821,-3.5248,0.3120,113,0,0,-0.010941,0.012631,-0.310882,-0.008627,0.079111,0.002442,1.1442,-3.0473,14.9011
13434,12.0,-0.007607,0.000486,-0.310666,-0.013101,-0.000956,-0.002381,-4.2657,-1.1925,0.0010,-0.00078900,0.00271939,-0.13148642,-0.00608030,0.01248454,-0.01948215,-0.2459,0.7871,-9.7318,-0.000927,-0.007253,0.006983,26.1030,16.5023,34.0821,-3.5248,0.3120,107,0,0,-0.010989,0.012662,-0.310750,-0.008592,0.079663,0.005247,1.0879,-3.0290,14.9605
13446,12.0,-0.007545,-0.000013,-0.310693,-0.011191,-0.006112,-0.002185,-4.2993,-1.2152,0.0003,-0.00049553,0.00285371,-0.13148388,-0.00608434,0.01249340,-0.01948421,-0.2591,0.7670,-9.7809,0.001272,-0.018833,0.008393,26.1030,16.5023,34.0821,-3.5248,0.3100,109,0,-1,-0.010970,0.012709,-0.310692,-0.007616,0.080498,0.006703,1.0920,-3.0393,15.0519
13457,11.0,-0.007480,-0.000037,-0.309728,-0.009443,-0.005776,0.008956,-4.3074,-1.2314,0.0006,-0.00051959,0.00296432,-0.13147524,-0.00620090,0.01273769,-0.02320177,-0.2485,0.7360,-9.8241,-0.014330,-0.014069,0.011281,26.1030,16.5023,34.0821,-3.5248,0.3100,102,0,0,-0.010602,0.011967,-0.309742,-0.002175,0.071849,0.016717,1.0095,-3.0597,15.2165
13468,11.0,-0.007414,-0.000072,-0.309635,-0.007704,-0.005481,0.007998,-4.3214,-1.2457,0.0004,-0.00053671,0.00306642,-0.13146736,-0.00620142,0.01273789,-0.02320519,-0.2344,0.7537,-9.8898,-0.022360,-0.013026,0.022992,26.1030,16.5023,34.0821,-3.5248,0.3100,107,0,0,-0.010537,0.012003,-0.309576,-0.000979,0.072362,0.017177,0.9518,-3.0547,15.2821
13479,11.0,-0.007341,0.000396,-0.309442,-0.006191,0.000345,0.008357,-4.2972,-1.2605,0.0030,-0.00085365,0.00316084,-0.13145338,-0.00621256,0.01277154,-0.02363231,-0.2456,0.7505,-9.8890,-0.015629,-0.015130,0.023295,26.1030,16.5023,34.0821,-3.5248,0.3100,106,0,1,-0.010476,0.012027,-0.309268,0.000067,0.073346,0.018857,0.9443,-3.0662,15.3801
13490,11.0,-0.007348,0.000429,-0.310286,-0.005222,0.000111,-0.003579,-4.2818,-1.2622,0.0005,-0.00087419,0.00319906,-0.13145021,-0.00611498,0.01252511,-0.02018071,-0.1975,0.7013,-9.9182,0.023027,-0.003626,0.015039,26.1030,16.5023,34.0821,-3.5248,0.3120,111,0,0,-0.010471,0.012544,-0.310587,0.000678,0.078816,0.000665,0.9179,-3.0517,15.0748
13501,11.0,-0.007409,0.000504,-0.310246,-0.005565,0.000381,-0.003259,-4.2432,-1.2551,0.0007,-0.00092037,0.00319748,-0.13144940,-0.00612345,0.01255028,-0.02050245,-0.2525,0.6957,-9.8656,0.055086,0.004419,0.000469,26.1030,16.5023,34.0821,-3.5248,0.3120,106,0,0,-0.010466,0.012615,-0.310491,0.001239,0.078577,0.001302,0.8827,-3.0368,15.1430
13512,11.0,-0.007474,0.000563,-0.310284,-0.005735,0.000641,-0.003701,-4.2132,-1.2466,0.0006,-0.00095444,0.00319562,-0.13144888,-0.00612352,0.01255169,-0.02050249,-0.2342,0.7072,-9.8436,0.043398,0.006639,0.000681,26.1030,16.5023,34.0821,-3.5248,0.3120,106,0,0,-0.010594,0.012794,-0.310323,0.000080,0.078676,0.003191,0.9018,-3.0131,15.2959
13523,11.0,-0.007034,0.000570,-0.310131,0.000084,0.000465,-0.001449,-4.2120,-1.2702,0.0039,-0.00095477,0.00349528,-0.13142803,-0.00612968,0.01260472,-0.02122520,-0.2013,0.7164,-9.8020,0.003898,0.009266,0.011582,26.1030,16.1421,33.6685,-3.5248,0.3110,114,1,0,-0.010633,0.012854,-0.310437,-0.000083,0.078865,0.002190,0.9181,-3.0105,15.3864
13534,11.0,-0.006598,0.000542,-0.310150,0.004336,0.000021,-0.001945,-4.2298,-1.2850,0.0030,-0.00093508,0.00375661,-0.13141020,-0.00611877,0.01260452,-0.02123354,-0.2832,0.7294,-9.8464,-0.022394,0.016335,0.015982,26.1030,16.1421,33.6685,-3.5248,0.3110,114,1,0,-0.010245,0.013014,-0.310414,0.004717,0.079631,0.002883,0.8739,-3.0029,15.4412
13545,11.0,-0.006670,0.000494,-0.310073,0.002126,-0.001086,-0.002386,-4.2589,-1.2581,-0.0015,-0.00090798,0.00368853,-0.13141540,-0.00613214,0.01263257,-0.02164168,-0.3147,0.6929,-9.9617,-0.038884,0.023128,0.017772,26.1030,16.1421,33.6685,-3.5248,0.3120,111,0,0,-0.009892,0.013137,-0.310232,0.006819,0.078880,0.004328,0.7988,-2.9810,15.6033
13556,11.0,-0.006766,0.000467,-0.310628,-0.000277,-0.001814,-0.010579,-4.2743,-1.2297,-0.0014,-0.00090178,0.00362154,-0.13142002,-0.00609709,0.01249443,-0.01974934,-0.3292,0.7008,-10.0033,-0.021172,0.025631,0.015505,26.1030,16.1421,33.6685,-3.5248,0.3120,114,0,0,-0.009944,0.013120,-0.310936,0.005039,0.077670,-0.004678,0.7759,-2.9629,15.7053
13567,11.0,-0.006944,0.000462,-0.310669,-0.003077,-0.001867,-0.011095,-4.2767,-1.1881,-0.0020,-0.00091120,0.00351948,-0.13142665,-0.00611516,0.01251778,-0.02006112,-0.3005,0.7326,-9.9377,-0.003218,0.040189,0.017867,26.1030,16.1421,33.6685,-3.5248,0.3120,119,0,0,-0.010139,0.013109,-0.311061,0.000758,0.075494,-0.007197,0.7118,-2.9083,15.8869
13578,11.0,-0.007161,0.000468,-0.310789,-0.005728,-0.001720,-0.010681,-4.2726,-1.1422,-0.0019,-0.00092739,0.00341236,-0.13143350,-0.00612484,0.01251899,-0.02005758,-0.2669,0.7267,-9.7630,0.005531,0.046416,0.010823,26.1030,16.1421,33.6685,-3.5248,0.3120,123,0,0,-0.010306,0.013102,-0.311000,-0.001718,0.074362,-0.005845,0.6645,-2.8656,15.9666
13588,10.0,-0.007322,0.000980,-0.310389,-0.007284,0.003912,-0.003013,-4.2262,-1.1122,0.0005,-0.00124346,0.00335006,-0.13143016,-0.00617228,0.01266397,-0.02186528,-0.2389,0.6971,-9.6158,0.019898,0.032997,0.009503,26.1030,16.1421,33.6685,-3.5248,0.3110,118,0,1,-0.010496,0.013095,-0.310783,-0.003922,0.073925,-0.001851,0.6913,-2.8152,15.5633
13600,12.0,-0.006847,0.001030,-0.310412,-0.001318,0.003412,-0.000902,-4.2062,-1.1482,0.0073,-0.00124727,0.00368524,-0.13140789,-0.00616673,0.01266485,-0.02187636,-0.2241,0.6752,-9.6307,0.030004,-0.004179,0.016524,26.1030,16.1421,33.6685,-3.5618,0.3110,121,1,0,-0.010450,0.013720,-0.310652,-0.002538,0.079003,0.004415,0.6945,-2.7830,15.7168
13611,11.0,-0.006787,0.001076,-0.310291,-0.001204,0.002495,0.001971,-4.1880,-1.1597,0.0015,-0.00125584,0.00373153,-0.13140477,-0.00617867,0.01269682,-0.02233796,-0.2701,0.6247,-9.6833,0.028991,-0.016977,0.015617,26.1030,16.1421,33.6685,-3.5618,0.3110,125,0,0,-0.010457,0.013804,-0.310600,-0.002368,0.078037,0.006698,0.6685,-2.7722,15.7893
13622,11.0,-0.006759,0.001117,-0.310727,-0.001686,0.001285,-0.002403,-4.1723,-1.1648,0.0012,-0.00126908,0.00376052,-0.13140273,-0.00613664,0.01258333,-0.02068007,-0.2950,0.5910,-9.7216,0.024063,-0.009054,0.004180,26.9014,17.5607,32.9098,-3.5618,0.3120,120,0,0,-0.010420,0.013897,-0.310330,-0.001999,0.077367,0.010777,0.6886,-2.7847,15.8828
13633,11.0,-0.006770,0.001150,-0.310656,-0.002576,-0.000170,-0.000857,-4.1598,-1.1617,0.0004,-0.00128571,0.00376759,-0.13140191,-0.00614599,0.01260592,-0.02102956,-0.2984,0.5625,-9.7751,0.018208,0.000475,-0.002107,26.9014,17.5607,32.9098,-3.5618,0.3120,115,0,0,-0.010399,0.014062,-0.310980,-0.002269,0.074605,0.005014,0.6783,-2.7856,16.0391
13644,11.0,-0.006803,0.001130,-0.310659,-0.003087,-0.001656,0.000462,-4.1733,-1.1521,-0.0001,-0.00127989,0.00376667,-0.13140211,-0.00614596,0.01260613,-0.02102950,-0.2475,0.5906,-9.6918,-0.019272,0.009754,-0.006057,26.9014,17.5607,32.9098,-3.5618,0.3120,118,0,0,-0.010418,0.014125,-0.310928,-0.002478,0.072795,0.005987,0.6524,-2.7743,16.1051
13655,11.0,-0.006814,0.001099,-0.310280,-0.003349,-0.002548,0.005801,-4.1910,-1.1466,0.0009,-0.00127351,0.00378106,-0.13140154,-0.00618247,0.01268481,-0.02233133,-0.2520,0.6474,-9.7088,-0.025406,0.005760,-0.003815,26.9014,17.5607,32.9098,-3.5618,0.3110,118,0,0,-0.010451,0.014149,-0.310861,-0.002573,0.071445,0.007592,0.6502,-2.7687,16.1874
13666,11.0,-0.006704,0.001046,-0.310217,-0.002620,-0.003216,0.005718,-4.2185,-1.1643,0.0053,-0.00126042,0.00386991,-0.13139731,-0.00618593,0.01268551,-0.02233430,-0.2907,0.6923,-9.8127,-0.039875,-0.018153,0.004266,26.9014,17.5607,32.9098,-3.5988,0.3110,119,0,0,-0.010401,0.014175,-0.310488,-0.001895,0.069531,0.012441,0.5800,-2.7592,16.3308
13677,11.0,-0.006574,0.001016,-0.310017,-0.001771,-0.003915,0.007545,-4.2334,-1.1873,0.0059,-0.00126576,0.00396614,-0.13139227,-0.00620330,0.01271241,-0.02283049,-0.2962,0.6594,-9.7885,-0.022944,-0.025133,0.005044,26.9014,17.5607,32.9098,-3.5988,0.3110,115,0,0,-0.010300,0.014197,-0.310223,-0.001066,0.068784,0.014771,0.5162,-2.7616,16.3961
13688,11.0,-0.006490,0.001057,-0.310564,-0.001444,-0.003469,-0.000439,-4.2069,-1.2059,0.0037,-0.00131947,0.00403144,-0.13138744,-0.00614110,0.01259472,-0.02063358,-0.2914,0.6932,-9.8716,0.033100,-0.022726,-0.009235,26.9014,17.5607,32.9098,-3.5988,0.3120,125,0,0,-0.010074,0.014301,-0.310935,0.000683,0.068287,0.005422,0.4764,-2.7710,16.0834
13698,10.0,-0.006419,0.001107,-0.310472,-0.001023,-0.002491,-0.000182,-4.1790,-1.2211,0.0026,-0.00136895,0.00408291,-0.13138331,-0.00615194,0.01261412,-0.02100489,-0.2721,0.7415,-9.8968,0.040059,-0.021105,-0.009496,26.9014,17.5607,32.9098,-3.5988,0.3120,114,0,0,-0.010009,0.014400,-0.310772,0.000705,0.069044,0.006663,0.5029,-2.7877,16.1612
13709,11.0,-0.006862,0.001115,-0.310480,-0.006268,-0.001992,-0.001321,-4.1724,-1.1953,-0.0116,-0.00138856,0.00383105,-0.13139707,-0.00615769,0.01261400,-0.02099606,-0.2550,0.7454,-9.9045,0.008457,-0.010587,-0.002117,26.9014,17.5607,32.9098,-3.5988,0.3120,110,-1,0,-0.009963,0.014500,-0.310709,0.000644,0.069674,0.006319,0.4846,-2.7892,16.2183
13721,12.0,-0.006804,0.001115,-0.310751,-0.005178,-0.002498,-0.005642,-4.1700,-1.2110,0.0040,-0.00140735,0.00391169,-0.13139214,-0.00612803,0.01257066,-0.02014343,-0.2502,0.6648,-9.9293,0.001596,-0.015577,0.007901,27.2911,17.2154,33.2778,-3.5988,0.3120,111,0,0,-0.010311,0.014492,-0.311129,-0.003452,0.068942,-0.000330,0.4517,-2.7771,16.3741
13733,12.0,-0.006742,0.001104,-0.310824,-0.003916,-0.002740,-0.006576,-4.1741,-1.2253,0.0036,-0.00141980,0.00398459,-0.13138779,-0.00612375,0.01257157,-0.02014606,-0.2269,0.6916,-9.8822,-0.006440,-0.014690,0.007326,27.2911,17.2154,33.2778,-3.5988,0.3120,112,0,0,-0.010244,0.014555,-0.311136,-0.002364,0.068988,-0.000810,0.4558,-2.7915,16.4618
13744,11.0,-0.006728,0.001083,-0.310790,-0.003549,-0.003565,-0.007020,-4.1846,-1.2261,0.0018,-0.00142821,0.00401828,-0.13138577,-0.00613322,0.01259427,-0.02056299,-0.2458,0.6484,-9.9745,-0.016680,-0.001238,0.007702,27.2911,17.2154,33.2778,-3.5406,0.3120,109,0,0,-0.010392,0.015514,-0.311004,-0.003608,0.078032,0.000342,0.4464,-2.7954,16.6066
13755,11.0,-0.006789,0.001053,-0.310994,-0.004325,-0.004605,-0.009890,-4.1995,-1.2110,-0.0005,-0.00143790,0.00400785,-0.13138610,-0.00612239,0.01257366,-0.02015330,-0.2705,0.6276,-9.9444,-0.024068,0.016410,0.002253,27.2911,17.2154,33.2778,-3.5406,0.3120,110,0,0,-0.010392,0.015545,-0.311302,-0.003136,0.076110,-0.003909,0.3945,-2.7796,16.6749
13766,11.0,-0.006878,0.000531,-0.311019,-0.005443,-0.011063,-0.009749,-4.2461,-1.1908,-0.0035,-0.00116687,0.00398632,-0.13139346,-0.00613365,0.01256052,-0.02046783,-0.2787,0.6244,-9.8923,-0.022207,0.022166,0.003247,27.2911,17.2154,33.2778,-3.5406,0.3120,110,0,-1,-0.010439,0.015551,-0.311346,-0.003441,0.074278,-0.004680,0.3799,-2.7681,16.7620
13777,11.0,-0.006962,0.000032,-0.311129,-0.006392,-0.015993,-0.010122,-4.2700,-1.1752,-0.0021,-0.00095020,0.00397518,-0.13139915,-0.00613485,0.01253746,-0.02046812,-0.2766,0.6738,-9.8392,0.003754,0.017019,-0.003245,27.2911,17.2154,33.2778,-3.5406,0.3130,109,0,-1,-0.010315,0.014693,-0.312028,-0.002014,0.061660,-0.011672,0.2867,-2.7275,16.9221
13788,11.0,-0.007033,0.000022,-0.311625,-0.006453,-0.014552,-0.015027,-4.2562,-1.1636,0.0012,-0.00104946,0.00397593,-0.13139696,-0.00609858,0.01248180,-0.01916851,-0.2134,0.7051,-9.8482,0.004774,0.013273,-0.004885,27.2911,17.2154,33.2778,-3.5406,0.3130,111,0,0,-0.010258,0.014276,-0.312146,-0.001492,0.056444,-0.011480,0.2535,-2.6903,16.4904
13799,11.0,-0.007122,0.000027,-0.311792,-0.007060,-0.012521,-0.015331,-4.2351,-1.1492,0.0008,-0.00114434,0.00396685,-0.13139547,-0.00609950,0.01249151,-0.01916810,-0.2452,0.7595,-9.8255,0.017248,0.015649,-0.002958,27.2911,17.2154,33.2778,-3.5406,0.3130,106,0,0,-0.010395,0.014310,-0.312252,-0.002986,0.058024,-0.009582,0.2310,-2.6567,16.6324
13810,11.0,-0.006780,0.000002,-0.311843,-0.002557,-0.010720,-0.013563,-4.2331,-1.1530,0.0098,-0.00120679,0.00420771,-0.13137977,-0.00608891,0.01251836,-0.01957797,-0.2208,0.7868,-9.7601,-0.006770,0.032652,0.007956,27.2911,17.2154,33.2778,-3.5406,0.3130,104,1,0,-0.010047,0.014455,-0.312347,0.000798,0.060678,-0.009092,0.2432,-2.6612,16.7072
13821,11.0,-0.006949,-0.000029,-0.312036,-0.004677,-0.009103,-0.012123,-4.2356,-1.1155,-0.0011,-0.00125508,0.00412913,-0.13138391,-0.00608794,0.01251065,-0.01938872,-0.2522,0.7837,-9.6067,-0.011461,0.038376,0.014256,26.4981,16.5023,33.2548,-3.5406,0.3130,110,0,0,-0.009728,0.014573,-0.312502,0.003879,0.062467,-0.008901,0.1985,-2.6429,16.7669
13832,11.0,-0.007025,-0.000038,-0.312078,-0.005976,-0.008344,-0.009344,-4.2307,-1.0996,0.0004,-0.00130730,0.00411821,-0.13138349,-0.00609525,0.01252788,-0.01967528,-0.2930,0.7001,-9.6382,-0.000252,0.016485,0.015840,26.4981,16.5023,33.2548,-3.5195,0.3130,110,0,0,-0.009961,0.014542,-0.312522,-0.000778,0.062313,-0.002878,0.1522,-2.5846,16.9398
13843,11.0,-0.006960,-0.000044,-0.312184,-0.005507,-0.008433,-0.009994,-4.2262,-1.1138,0.0028,-0.00135955,0.00419580,-0.13137746,-0.00609293,0.01252970,-0.01967849,-0.2921,0.6392,-9.8656,-0.001165,-0.014522,0.013059,26.4981,16.5023,33.2548,-3.5195,0.3130,119,0,0,-0.009953,0.014584,-0.312546,-0.001581,0.062015,-0.001536,0.1580,-2.5862,17.0318
13854,11.0,-0.006953,-0.000057,-0.312121,-0.006046,-0.008586,-0.008735,-4.2248,-1.1156,0.0017,-0.00140845,0.00423803,-0.13137369,-0.00610579,0.01256765,-0.02027353,-0.3239,0.6386,-9.8785,-0.005650,-0.000831,0.005484,26.4981,16.5023,33.2548,-3.5195,0.3130,119,0,0,-0.009898,0.014638,-0.312634,-0.001444,0.061415,-0.002196,0.1244,-2.5872,17.1057
13865,11.0,-0.007053,-0.000071,-0.312221,-0.007718,-0.009145,-0.009456,-4.2250,-1.0965,-0.0008,-0.00145855,0.00422354,-0.13137309,-0.00610658,0.01257037,-0.02027322,-0.3245,0.5994,-9.8750,-0.008738,0.022770,-0.006324,26.4981,16.5023,33.2548,-3.5195,0.3130,120,0,0,-0.009907,0.014688,-0.312588,-0.002968,0.059684,-0.001750,0.0878,-2.5772,17.2625
13876,11.0,-0.007124,-0.000043,-0.312220,-0.008404,-0.008338,-0.008525,-4.1994,-1.0882,0.0002,-0.00153316,0.00423322,-0.13137047,-0.00611593,0.01259687,-0.02064054,-0.2751,0.6762,-9.8363,0.027386,0.010611,-0.014556,26.4981,16.5023,33.2548,-3.5195,0.3120,119,0,0,-0.009993,0.014689,-0.312468,-0.004482,0.058673,-0.000274,0.0881,-2.5614,17.3442
13887,11.0,-0.007174,-0.000010,-0.311661,-0.008180,-0.006710,-0.000672,-4.1706,-1.0855,0.0011,-0.00160119,0.00425580,-0.13136740,-0.00617482,0.01272933,-0.02279690,-0.2164,0.7512,-9.7724,0.033750,0.004075,-0.011948,26.4981,16.5023,33.2548,-3.5565,0.3120,119,0,0,-0.010133,0.014771,-0.311953,-0.006242,0.059242,0.005876,0.1096,-2.5257,16.9652
13898,11.0,-0.007251,0.000008,-0.311570,-0.007961,-0.005902,0.001624,-4.1531,-1.0757,0.0009,-0.00165308,0.00426220,-0.13136590,-0.00618361,0.01274992,-0.02311384,-0.1824,0.6974,-9.6992,0.018777,0.012043,-0.009335,26.4981,16.5023,33.2548,-3.5565,0.3120,121,0,0,-0.010194,0.014819,-0.311768,-0.006462,0.059966,0.008407,0.0888,-2.5075,17.0214
13909,11.0,-0.007300,0.000021,-0.311545,-0.007402,-0.004780,0.002895,-4.1379,-1.0714,0.0015,-0.00169632,0.00428356,-0.13136378,-0.00618342,0.01275042,-0.02311502,-0.1764,0.7381,-9.6889,0.016533,0.006051,-0.004847,26.4981,16.5023,33.2548,-3.5565,0.3130,123,0,0,-0.010266,0.014852,-0.311676,-0.006599,0.060524,0.010118,0.1032,-2.4995,17.0989
13920,11.0,-0.007311,0.000003,-0.311773,-0.007211,-0.004276,0.001065,-4.1416,-1.0715,0.0014,-0.00171609,0.00432577,-0.13136071,-0.00616029,0.01269710,-0.02224196,-0.2457,0.7230,-9.6895,-0.008910,0.002379,0.004735,26.8906,16.5098,33.6455,-3.5565,0.3130,122,0,0,-0.010338,0.014926,-0.312104,-0.006578,0.061202,0.007417,0.0804,-2.4800,17.2377
13931,11.0,-0.007353,0.000006,-0.311754,-0.006917,-0.003924,0.002335,-4.1356,-1.0663,0.0012,-0.00174437,0.00434684,-0.13135891,-0.00616081,0.01269651,-0.02224308,-0.1993,0.6932,-9.6910,0.005059,0.006725,0.005101,26.8906,16.5098,33.6455,-3.5565,0.3130,119,0,0,-0.010350,0.014945,-0.312023,-0.006609,0.060946,0.009191,0.0370,-2.4678,17.3039
13942,11.0,-0.007401,0.000001,-0.311605,-0.007101,-0.003990,0.004255,-4.1345,-1.0589,0.0011,-0.00176717,0.00436357,-0.13135751,-0.00617092,0.01272150,-0.02264839,-0.2362,0.6687,-9.7639,-0.001779,0.009485,0.004696,26.8906,16.5098,33.6455,-3.5565,0.3130,119,0,0,-0.010383,0.014972,-0.311769,-0.006557,0.061088,0.012671,0.0412,-2.4641,17.3887
13953,11.0,-0.007414,-0.000027,-0.311324,-0.007070,-0.004043,0.007568,-4.1459,-1.0568,0.0012,-0.00177625,0.00440097,-0.13135500,-0.00618919,0.01276880,-0.02339912,-0.2537,0.6935,-9.7478,-0.018876,0.004510,0.011603,26.8906,16.5098,33.6455,-3.5565,0.3120,121,0,0,-0.010467,0.015001,-0.311555,-0.006980,0.060035,0.014162,0.0003,-2.4402,17.5430
13964,11.0,-0.007325,-0.000060,-0.311147,-0.005588,-0.004214,0.009028,-4.1600,-1.0750,0.0026,-0.00178345,0.00449370,-0.13134903,-0.00619838,0.01278861,-0.02371288,-0.2236,0.6906,-9.7755,-0.022815,-0.017585,0.015739,26.8906,16.5098,33.6455,-3.5565,0.3120,122,0,0,-0.010466,0.015014,-0.311409,-0.006850,0.059482,0.015340,-0.0458,-2.4298,17.6131
13975,11.0,-0.007197,-0.000078,-0.311052,-0.004416,-0.005261,0.008177,-4.1676,-1.1005,0.0045,-0.00180360,0.00460117,-0.13134243,-0.00619889,0.01278883,-0.02371754,-0.2840,0.5980,-9.8911,-0.014845,-0.026348,0.018364,26.8906,16.5098,33.6455,-3.5354,0.3130,122,0,0,-0.010393,0.015046,-0.311252,-0.005850,0.059692,0.016313,-0.0556,-2.4419,17.7000
13986,11.0,-0.007087,0.000404,-0.311525,-0.003699,-0.000021,-0.000026,-4.1353,-1.1231,0.0092,-0.00210462,0.00469306,-0.13133141,-0.00615989,0.01268637,-0.02194311,-0.3010,0.6593,-9.9723,-0.006013,-0.023295,0.002408,26.8906,16.5098,33.6455,-3.5354,0.3130,115,0,1,-0.010180,0.015150,-0.311853,-0.003400,0.058370,0.006582,-0.1062,-2.4688,17.8603
13997,11.0,-0.007039,0.000403,-0.311529,-0.002787,0.000131,-0.000645,-4.1355,-1.1333,0.0017,-0.00210410,0.00474200,-0.13132852,-0.00615779,0.01268648,-0.02194521,-0.2074,0.7388,-9.8593,0.000291,-0.011400,-0.003610,26.8906,16.5098,33.6455,-3.5354,0.3130,120,0,0,-0.010222,0.015636,-0.311686,-0.004149,0.062806,0.006770,-0.1069,-2.4662,17.3880
14008,11.0,-0.007021,0.000875,-0.311425,-0.002379,0.006322,0.000509,-4.1116,-1.1352,0.0075,-0.00235928,0.00476800,-0.13132291,-0.00616418,0.01272132,-0.02231811,-0.2132,0.8098,-9.8149,-0.010842,-0.002820,0.002862,26.8906,16.5098,33.6455,-3.5354,0.3120,116,0,1,-0.010279,0.016152,-0.311645,-0.004852,0.067986,0.005888,-0.1337,-2.4668,17.5247
14019,11.0,-0.006906,0.000860,-0.311267,-0.001177,0.005401,0.000449,-4.1289,-1.1558,0.0001,-0.00231216,0.00484648,-0.13131841,-0.00616833,0.01274969,-0.02284048,-0.2417,0.7320,-9.9805,-0.017732,-0.023050,0.012085,27.2884,16.8626,34.0821,-3.5354,0.3120,108,0,0,-0.010381,0.016609,-0.311496,-0.005947,0.072607,0.007181,-0.1289,-2.4700,17.6081
14030,11.0,-0.006827,0.000855,-0.311190,-0.000973,0.004463,-0.001111,-4.1393,-1.1682,0.0002,-0.00227786,0.00489918,-0.13131550,-0.00616755,0.01276354,-0.02312733,-0.2889,0.7143,-10.0407,-0.009006,-0.015491,0.018884,27.2884,16.8626,34.0821,-3.5354,0.3120,111,0,0,-0.010288,0.016664,-0.311431,-0.004870,0.071299,0.006237,-0.1795,-2.4743,17.6785
14041,11.0,-0.007042,0.000355,-0.311209,-0.004051,-0.002477,-0.002327,-4.1848,-1.1203,-0.0084,-0.00197981,0.00479052,-0.13132799,-0.00618198,0.01272353,-0.02312373,-0.2841,0.6538,-9.9198,-0.013582,0.049614,0.010245,27.2884,16.8626,34.0821,-3.5354,0.3130,109,0,-1,-0.010078,0.016313,-0.312086,-0.003206,0.063581,-0.005082,-0.2554,-2.4733,17.8515
14052,11.0,-0.007832,0.000355,-0.311637,-0.012979,-0.003588,-0.006275,-4.1842,-1.0267,-0.0140,-0.00199953,0.00438875,-0.13135105,-0.00620093,0.01264332,-0.02182096,-0.2519,0.5859,-9.7449,-0.002453,0.065067,0.002734,27.2884,16.8626,34.0821,-3.5565,0.3130,109,-1,0,-0.010699,0.016135,-0.312141,-0.010547,0.060058,-0.005723,-0.2641,-2.4195,17.9524
14064,12.0,-0.008098,0.000374,-0.311693,-0.014734,-0.004550,-0.003010,-4.1694,-0.9820,-0.0019,-0.00203859,0.00433072,-0.13135342,-0.00620379,0.01264514,-0.02181865,-0.2230,0.5610,-9.5427,0.014680,0.050214,-0.008049,27.2884,16.8626,34.0821,-3.5565,0.3130,105,0,0,-0.011212,0.016046,-0.312103,-0.013750,0.055775,-0.001480,-0.2935,-2.3270,18.1082
14075,11.0,-0.008212,0.000390,-0.311593,-0.014810,-0.005991,0.000277,-4.1588,-0.9699,0.0028,-0.00208095,0.00435793,-0.13135150,-0.00621159,0.01266976,-0.02221757,-0.2308,0.5027,-9.6537,0.008465,0.020632,-0.016644,27.2884,16.8626,34.0821,-3.5565,0.3130,108,0,0,-0.011425,0.016037,-0.311912,-0.014908,0.053824,0.003711,-0.3078,-2.2865,18.1710
14086,11.0,-0.008279,0.000379,-0.311886,-0.014644,-0.007118,-0.003120,-4.1604,-0.9657,0.0050,-0.00211643,0.00441309,-0.13134867,-0.00619107,0.01261799,-0.02129497,-0.2607,0.5557,-9.8133,-0.009727,0.013215,-0.013919,27.2884,16.8626,34.0821,-3.5565,0.3130,108,0,0,-0.011537,0.016050,-0.312436,-0.014709,0.052248,-0.000155,-0.2851,-2.2636,17.7098
14097,11.0,-0.007869,-0.000181,-0.311825,-0.008694,-0.012874,-0.001575,-4.2201,-0.9871,0.0153,-0.00186072,0.00471858,-0.13133992,-0.00619194,0.01262937,-0.02160778,-0.2128,0.6858,-9.7672,-0.045031,0.021915,-0.016931,27.2884,16.8626,34.0821,-3.5565,0.3130,105,1,-1,-0.011651,0.016043,-0.312297,-0.013825,0.049977,0.002383,-0.3241,-2.2410,17.8375
14108,11.0,-0.007977,-0.000255,-0.311836,-0.009200,-0.011630,-0.000423,-4.2434,-0.9665,0.0007,-0.00189514,0.00471302,-0.13133970,-0.00619196,0.01262947,-0.02160781,-0.2089,0.7737,-9.6950,-0.043645,0.028097,-0.017861,26.5008,16.4949,33.6915,-3.5565,0.3130,108,0,0,-0.011151,0.015702,-0.312271,-0.007310,0.046048,0.003452,-0.3973,-2.2340,17.8895
14119,11.0,-0.008032,-0.000297,-0.311905,-0.009353,-0.009625,-0.000516,-4.2493,-0.9592,0.0022,-0.00193809,0.00473986,-0.13133752,-0.00618772,0.01261914,-0.02139614,-0.2359,0.8337,-9.7311,-0.017771,0.012874,-0.014329,26.5008,16.4949,33.6915,-3.5565,0.3130,111,0,0,-0.011278,0.015611,-0.312438,-0.008909,0.047361,0.003942,-0.4709,-2.1959,18.0114
14130,11.0,-0.007996,-0.000329,-0.311907,-0.008283,-0.007820,0.000273,-4.2530,-0.9701,0.0025,-0.00197395,0.00481397,-0.13133214,-0.00618859,0.01261900,-0.02139994,-0.2151,0.8288,-9.7237,-0.012750,-0.007677,-0.000989,26.5008,16.4949,33.6915,-3.5565,0.3130,112,0,0,-0.011284,0.015617,-0.312394,-0.009202,0.048952,0.004921,-0.4722,-2.1957,18.0832
14141,11.0,-0.007969,-0.000364,-0.311774,-0.007346,-0.006290,0.003456,-4.2609,-0.9777,0.0009,-0.00199736,0.00487678,-0.13132726,-0.00619814,0.01263849,-0.02178608,-0.2070,0.8211,-9.6371,-0.016575,-0.005228,0.010571,26.5008,16.4949,33.6915,-3.5565,0.3130,116,0,0,-0.011255,0.015635,-0.312185,-0.008830,0.050090,0.007903,-0.5141,-2.1927,18.1429
14152,11.0,-0.007932,-0.000388,-0.311378,-0.006474,-0.005470,0.009759,-4.2659,-0.9866,0.0004,-0.00201917,0.00493815,-0.13132228,-0.00622186,0.01269595,-0.02284774,-0.2122,0.7562,-9.5900,-0.011694,-0.007672,0.010894,26.5008,16.4949,33.6915,-3.5565,0.3120,120,0,0,-0.011225,0.015644,-0.312098,-0.008639,0.051398,0.009837,-0.5229,-2.1970,18.2266
14163,11.0,-0.007872,-0.000370,-0.311169,-0.005594,-0.005144,0.012629,-4.2508,-1.0021,0.0014,-0.00206099,0.00500771,-0.13131659,-0.00623275,0.01271060,-0.02314483,-0.2290,0.6783,-9.6473,0.016231,-0.016530,0.011430,26.5008,16.4949,33.6915,-3.5565,0.3120,122,0,0,-0.011149,0.015703,-0.311593,-0.007875,0.052386,0.017578,-0.5638,-2.2026,18.3786
14174,11.0,-0.007785,-0.000346,-0.311029,-0.004961,-0.005380,0.012853,-4.2334,-1.0228,0.0020,-0.00210629,0.00508742,-0.13131037,-0.00623840,0.01270774,-0.02314931,-0.2763,0.6284,-9.7907,0.018876,-0.021999,0.001310,26.5008,16.4949,33.6915,-3.5565,0.3130,122,0,0,-0.011108,0.015764,-0.311407,-0.007321,0.052293,0.019802,-0.5839,-2.2056,18.4488
14185,11.0,-0.007646,-0.000344,-0.311475,-0.003519,-0.006224,0.005230,-4.2281,-1.0526,0.0033,-0.00214356,0.00519151,-0.13130316,-0.00621308,0.01259124,-0.02138031,-0.2530,0.5946,-9.8944,0.001097,-0.031064,-0.002811,26.5008,16.4949,33.6915,-3.5565,0.3130,120,0,0,-0.010935,0.015928,-0.311864,-0.005567,0.051619,0.012491,-0.5718,-2.2316,18.0655
14196,11.0,-0.007531,-0.000362,-0.311422,-0.001481,-0.006249,0.004416,-4.2314,-1.0757,0.0029,-0.00217121,0.00526995,-0.13129793,-0.00621419,0.01259114,-0.02138438,-0.1568,0.6850,-9.8815,-0.010737,-0.024785,-0.010903,26.5008,16.4949,33.6915,-3.5565,0.3130,126,0,0,-0.010815,0.016002,-0.311627,-0.004149,0.051222,0.013489,-0.5681,-2.2537,18.1406
14208,12.0,-0.007481,-0.000414,-0.311252,-0.000671,-0.006166,0.004780,-4.2509,-1.0822,0.0012,-0.00218354,0.00530417,-0.13129562,-0.00621975,0.01261632,-0.02176906,-0.1871,0.7275,-9.8955,-0.030325,-0.007150,-0.005730,26.8933,17.2228,32.8412,-3.5565,0.3110,119,0,0,-0.010623,0.016092,-0.311364,-0.000952,0.051682,0.013030,-0.6053,-2.2726,18.2671
14219,11.0,-0.007445,-0.000497,-0.310584,-0.000107,-0.006804,0.010973,-4.2896,-1.0817,0.0001,-0.00217653,0.00532421,-0.13129434,-0.00624699,0.01273746,-0.02363685,-0.1847,0.7005,-9.8939,-0.059671,0.000688,-0.002137,26.8933,17.2228,32.8412,-3.5565,0.3110,115,0,0,-0.010566,0.016094,-0.310838,-0.000461,0.051461,0.016923,-0.6548,-2.2650,18.3252
14230,11.0,-0.007955,-0.000572,-0.310372,-0.005975,-0.007331,0.011768,-4.3238,-1.0388,-0.0046,-0.00217742,0.00506473,-0.13131130,-0.00626318,0.01275550,-0.02391365,-0.2116,0.6986,-9.8364,-0.054095,0.011500,-0.004648,26.8933,17.2228,32.8412,-3.5565,0.3110,125,-1,0,-0.010516,0.016065,-0.310671,-0.000075,0.050970,0.016628,-0.6881,-2.2631,18.4018
14241,11.0,-0.008030,-0.000608,-0.310242,-0.006253,-0.007090,0.011983,-4.3344,-1.0243,0.0012,-0.00220119,0.00506002,-0.13131155,-0.00626340,0.01275663,-0.02391374,-0.1997,0.7256,-9.7865,-0.021880,0.018326,-0.015232,26.8933,17.2228,32.8412,-3.5565,0.3140,121,0,0,-0.010951,0.015853,-0.310192,-0.005140,0.048018,0.018744,-0.7715,-2.2197,18.5451
14252,11.0,-0.008070,-0.000623,-0.311641,-0.006048,-0.006642,-0.005422,-4.3334,-1.0190,0.0021,-0.00223672,0.00507819,-0.13131024,-0.00621190,0.01246079,-0.01933992,-0.1931,0.7267,-9.7804,-0.006131,0.008104,-0.018333,26.8933,17.2228,32.8412,-3.5565,0.3140,118,0,0,-0.011006,0.015834,-0.312265,-0.005634,0.047502,-0.004735,-0.8155,-2.1965,18.6004
14263,11.0,-0.008058,-0.000624,-0.311701,-0.005707,-0.006300,-0.005481,-4.3267,-1.0244,0.0024,-0.00227437,0.00511936,-0.13130729,-0.00620988,0.01246283,-0.01934238,-0.2323,0.7100,-9.8075,0.002804,-0.003879,-0.016330,26.8933,17.2228,32.8412,-3.5565,0.3140,117,0,0,-0.011067,0.015855,-0.312238,-0.005858,0.047674,-0.002472,-0.8429,-2.1755,18.7191
14274,11.0,-0.008027,-0.000644,-0.311650,-0.004882,-0.005578,-0.004431,-4.3294,-1.0322,0.0014,-0.00229861,0.00516728,-0.13130374,-0.00621017,0.01248721,-0.01969031,-0.2037,0.7711,-9.8247,-0.009298,-0.006646,-0.009230,26.8933,17.2228,32.8412,-3.5354,0.3120,118,0,0,-0.011057,0.015886,-0.312116,-0.005872,0.048018,-0.000464,-0.8389,-2.1776,18.7865
14285,11.0,-0.008008,-0.000693,-0.311346,-0.004674,-0.004955,-0.000126,-4.3484,-1.0346,-0.0002,-0.00230283,0.00520486,-0.13130076,-0.00621670,0.01255716,-0.02073376,-0.2404,0.7982,-9.7734,-0.030961,-0.000163,-0.006845,26.8933,17.2228,32.8412,-3.5354,0.3120,113,0,0,-0.011028,0.015911,-0.311893,-0.005499,0.048416,0.002256,-0.8572,-2.1701,18.3290
14297,12.0,-0.007885,-0.000741,-0.311262,-0.003061,-0.004155,0.000560,-4.3660,-1.0597,-0.0019,-0.00230655,0.00529551,-0.13129307,-0.00621298,0.01257649,-0.02100875,-0.2179,0.8178,-9.8268,-0.026193,-0.024474,0.001102,26.8933,17.2228,32.8412,-3.5354,0.3120,110,0,0,-0.010952,0.015905,-0.311722,-0.005324,0.049132,0.004892,-0.9249,-2.1652,18.4600
14308,11.0,-0.007722,-0.000773,-0.311263,-0.001458,-0.003132,-0.000773,-4.3770,-1.0902,-0.0036,-0.00231051,0.00539555,-0.13128391,-0.00620394,0.01257720,-0.02101339,-0.2472,0.8531,-9.9141,-0.018072,-0.032506,-0.000448,26.1111,16.4800,34.5651,-3.5354,0.3150,113,0,0,-0.010837,0.015931,-0.311673,-0.004348,0.050017,0.005195,-0.9404,-2.1807,18.5350
14319,11.0,-0.007626,-0.000803,-0.312715,-0.001148,-0.002712,-0.018660,-4.3884,-1.1056,-0.0025,-0.00231304,0.00545631,-0.13127819,-0.00616300,0.01226436,-0.01680913,-0.2865,0.8049,-9.9169,-0.018193,-0.017432,0.003659,26.1111,16.4800,34.5651,-3.5354,0.3150,113,0,0,-0.010574,0.016016,-0.313543,-0.003183,0.051596,-0.015196,-1.0006,-2.2106,18.6732
14330,11.0,-0.007631,-0.000819,-0.312924,-0.001768,-0.002542,-0.019328,-4.3941,-1.1016,-0.0000,-0.00231960,0.00546208,-0.13127756,-0.00616230,0.01226519,-0.01680949,-0.2647,0.7694,-9.8553,-0.010181,0.003022,-0.001996,26.1111,16.4800,34.5651,-3.5354,0.3150,113,0,0,-0.010523,0.016035,-0.313700,-0.003698,0.051335,-0.015900,-1.0437,-2.2104,18.7406
14341,11.0,-0.007640,-0.000809,-0.313021,-0.002329,-0.002171,-0.017694,-4.3855,-1.0995,0.0003,-0.00233869,0.00546881,-0.13127667,-0.00616522,0.01229538,-0.01715204,-0.2596,0.7564,-9.7699,0.009702,0.000878,-0.008145,26.1111,16.4800,34.5651,-3.5354,0.3120,107,0,0,-0.010524,0.016050,-0.313715,-0.004507,0.051145,-0.014409,-1.0487,-2.2068,18.8192
14352,11.0,-0.007641,-0.000310,-0.312024,-0.002628,0.002909,-0.003553,-4.3498,-1.0987,0.0074,-0.00259900,0.00547987,-0.13127208,-0.00620547,0.01261185,-0.02061377,-0.2489,0.6885,-9.7636,0.002294,-0.000095,-0.006037,26.1111,16.4800,34.5651,-3.5354,0.3120,105,0,1,-0.010699,0.016541,-0.312487,-0.007305,0.055121,0.002141,-1.0494,-2.1950,18.9545
14363,11.0,-0.007662,-0.000311,-0.311973,-0.002744,0.001225,-0.001915,-4.3561,-1.0935,-0.0005,-0.00258678,0.00548398,-0.13127188,-0.00620872,0.01263298,-0.02087424,-0.2126,0.6248,-9.7555,-0.007713,0.005337,-0.009089,26.1111,16.4800,34.5651,-3.5354,0.3120,115,0,0,-0.010856,0.017004,-0.312462,-0.009008,0.058463,0.003081,-1.0576,-2.1867,19.0155
14375,12.0,-0.007681,-0.000320,-0.311993,-0.003120,-0.000306,-0.001541,-4.3656,-1.0884,-0.0004,-0.00257921,0.00549259,-0.13127130,-0.00620802,0.01263237,-0.02087446,-0.2405,0.6423,-9.7774,-0.012612,0.005134,-0.008170,26.1111,16.4800,34.5651,-3.5354,0.3150,115,0,0,-0.010873,0.017034,-0.312427,-0.008573,0.056438,0.004086,-1.0622,-2.1831,19.0911
14386,11.0,-0.007668,-0.000838,-0.313052,-0.003202,-0.006413,-0.014287,-4.4066,-1.0902,-0.0077,-0.00232956,0.00551997,-0.13127260,-0.00615866,0.01235894,-0.01789133,-0.2530,0.7274,-9.8759,-0.012909,-0.000942,-0.013116,26.1111,16.4800,34.5651,-3.5354,0.3150,112,0,-1,-0.010880,0.017080,-0.313790,-0.007807,0.052835,-0.009021,-1.0877,-2.1692,18.6989
14398,12.0,-0.007686,-0.000907,-0.313232,-0.003371,-0.006122,-0.015687,-4.4349,-1.0827,-0.0002,-0.00233258,0.00553141,-0.13127160,-0.00615728,0.01235935,-0.01789187,-0.2310,0.7933,-9.9113,-0.041705,0.008781,-0.003231,26.1111,16.4800,34.5651,-3.5354,0.3150,107,0,0,-0.010720,0.016654,-0.313849,-0.006370,0.046810,-0.008236,-1.1554,-2.1581,18.8361
14409,11.0,-0.007693,-0.000974,-0.313270,-0.003489,-0.005559,-0.015531,-4.4628,-1.0767,-0.0005,-0.00233121,0.00554649,-0.13127026,-0.00616244,0.01239300,-0.01831221,-0.2371,0.8352,-9.9308,-0.043799,0.007758,0.004691,26.8960,16.4949,33.6915,-3.6041,0.3120,108,0,0,-0.010721,0.016624,-0.312613,-0.006407,0.046446,0.005562,-1.2076,-2.1437,18.8996
14420,11.0,-0.007193,-0.001009,-0.312097,0.001633,-0.004704,-0.001436,-4.4746,-1.1059,-0.0116,-0.00234097,0.00580445,-0.13124546,-0.00618842,0.01270616,-0.02216581,-0.2755,0.8408,-9.9200,-0.020612,0.002856,0.013209,26.8960,16.4949,33.6915,-3.6041,0.3120,109,1,0,-0.010718,0.016595,-0.312451,-0.006822,0.046561,0.005963,-1.2316,-2.1370,18.9810
14431,11.0,-0.007213,-0.001010,-0.312013,0.000481,-0.004675,-0.001429,-4.4704,-1.0970,0.0013,-0.00236723,0.00578769,-0.13124658,-0.00619741,0.01273691,-0.02248055,-0.2678,0.7344,-9.9182,0.001514,0.005329,0.010925,26.8960,16.4949,33.6915,-3.6041,0.3120,110,0,0,-0.010298,0.016743,-0.312174,-0.003808,0.048135,0.006469,-1.2812,-2.1372,19.1286
14442,11.0,-0.007274,-0.000994,-0.312030,-0.000422,-0.004710,-0.001684,-4.4582,-1.0824,0.0020,-0.00240135,0.00575646,-0.13124889,-0.00620290,0.01274285,-0.02247978,-0.2106,0.7043,-9.8296,0.012380,0.011592,0.005791,26.8960,16.4949,33.6915,-3.6041,0.3140,108,0,0,-0.010326,0.016768,-0.312114,-0.004702,0.047305,0.005830,-1.3024,-2.1260,19.2042
14453,11.0,-0.007374,-0.000963,-0.312485,-0.001230,-0.004850,-0.006005,-4.4378,-1.0629,0.0026,-0.00244391,0.00571199,-0.13125224,-0.00618468,0.01264566,-0.02123438,-0.1671,0.6679,-9.7417,0.023250,0.017629,-0.006599,26.8960,16.4949,33.6915,-3.6041,0.3140,114,0,0,-0.010383,0.016793,-0.313120,-0.005347,0.046687,-0.005205,-1.2955,-2.1160,19.2887
14464,11.0,-0.007461,-0.000914,-0.312543,-0.001692,-0.004819,-0.004701,-4.4074,-1.0479,0.0029,-0.00249553,0.00567615,-0.13125485,-0.00618899,0.01265183,-0.02123398,-0.1515,0.6558,-9.6908,0.037048,0.012764,-0.013433,26.8960,16.4949,33.6915,-3.6041,0.3140,119,0,0,-0.010424,0.016422,-0.313071,-0.004610,0.040419,-0.001327,-1.2977,-2.0797,19.4299
14475,11.0,-0.007512,-0.000891,-0.312450,-0.001681,-0.004496,-0.001787,-4.3896,-1.0389,0.0023,-0.00253282,0.00565958,-0.13125613,-0.00619774,0.01268765,-0.02163607,-0.1477,0.7070,-9.6902,0.019806,0.007403,-0.013201,26.8960,16.4949,33.6915,-3.6041,0.3120,118,0,0,-0.010506,0.016465,-0.312241,-0.004979,0.040342,0.009355,-1.2910,-2.0606,19.4861
14486,11.0,-0.007558,-0.000884,-0.311688,-0.001803,-0.004327,0.008295,-4.3810,-1.0295,0.0019,-0.00255964,0.00564466,-0.13125740,-0.00623444,0.01286269,-0.02381876,-0.1644,0.7116,-9.7031,0.007480,0.008301,-0.011222,26.8960,16.4949,33.6915,-3.6041,0.3120,127,0,0,-0.010564,0.016497,-0.312140,-0.005033,0.040846,0.010926,-1.2584,-2.0535,19.0003
14497,11.0,-0.007579,-0.000878,-0.311527,-0.002195,-0.004101,0.008585,-4.3734,-1.0250,0.0015,-0.00258519,0.00564490,-0.13125741,-0.00623722,0.01288130,-0.02403185,-0.2199,0.7315,-9.8585,0.006239,0.003665,-0.010296,26.8960,16.4949,33.6915,-3.4878,0.3120,126,0,0,-0.010620,0.016541,-0.311778,-0.005400,0.041266,0.014978,-1.2669,-2.0350,19.1259
14508,11.0,-0.007616,-0.000902,-0.311440,-0.003202,-0.003986,0.007221,-4.3810,-1.0155,0.0006,-0.00259563,0.00564104,-0.13125770,-0.00623765,0.01288245,-0.02403191,-0.2671,0.7581,-9.9270,-0.014854,0.010602,-0.010380,27.2911,16.4949,34.1052,-3.4878,0.3140,126,0,0,-0.010643,0.016562,-0.311631,-0.005894,0.041254,0.014753,-1.2857,-2.0252,19.1832
14519,11.0,-0.007733,-0.000956,-0.312211,-0.004639,-0.003043,-0.003205,-4.4028,-0.9894,0.0011,-0.00258975,0.00560586,-0.13126096,-0.00621692,0.01270226,-0.02166203,-0.2329,0.8677,-9.8523,-0.033655,0.029887,-0.008206,27.2911,16.4949,34.1052,-3.4878,0.3140,122,0,0,-0.010709,0.016526,-0.312848,-0.007886,0.041384,-0.001004,-1.3373,-2.0010,19.3143
14530,11.0,-0.007846,-0.000985,-0.312243,-0.006211,-0.001956,-0.002742,-4.4129,-0.9668,0.0014,-0.00258862,0.00557995,-0.13126355,-0.00621967,0.01270205,-0.02166091,-0.2611,0.8634,-9.7500,-0.016366,0.026487,-0.008668,27.2911,16.4949,34.1052,-3.4878,0.3140,126,0,0,-0.010800,0.016473,-0.312857,-0.009411,0.041846,-0.000856,-1.3544,-1.9800,19.3883
14541,11.0,-0.007890,-0.000983,-0.312173,-0.006363,-0.000670,-0.000631,-4.4072,-0.9610,-0.0005,-0.00259657,0.00559174,-0.13126223,-0.00622136,0.01272441,-0.02193446,-0.2102,0.8595,-9.7044,0.006873,0.007666,-0.005785,27.2911,16.4949,34.1052,-3.4878,0.3120,128,0,0,-0.010890,0.016438,-0.312178,-0.010951,0.042049,0.007615,-1.3925,-1.9580,19.4506
14552,11.0,-0.007874,-0.000963,-0.311557,-0.005465,0.000683,0.007733,-4.3928,-0.9687,-0.0028,-0.00260610,0.00563030,-0.13125776,-0.00623586,0.01286492,-0.02364463,-0.1743,0.8583,-9.6815,0.020187,-0.007923,-0.002252,27.2911,16.4949,34.1052,-3.4878,0.3120,128,0,0,-0.010950,0.016480,-0.311907,-0.011452,0.043655,0.011724,-1.4083,-1.9449,19.5847
14563,11.0,-0.007880,-0.000950,-0.311396,-0.004740,0.001650,0.009262,-4.3847,-0.9702,-0.0022,-0.00260608,0.00565438,-0.13125488,-0.00623659,0.01288319,-0.02385454,-0.1588,0.8473,-9.7376,0.012514,-0.001937,0.005199,27.2911,16.4949,34.1052,-3.4878,0.3120,120,0,0,-0.010100,0.016828,-0.311782,-0.001557,0.048443,0.013328,-1.3954,-1.9775,19.6313
14574,11.0,-0.007863,-0.000932,-0.311298,-0.003665,0.001842,0.008568,-4.3766,-0.9758,-0.0029,-0.00260535,0.00568507,-0.13125122,-0.00623450,0.01288326,-0.02385584,-0.1440,0.7866,-9.8656,0.012796,-0.007075,0.006135,27.2911,16.4949,34.1052,-3.5829,0.3140,120,0,0,-0.010099,0.016868,-0.311644,-0.002032,0.048841,0.014566,-1.4164,-1.9675,19.6973
14585,11.0,-0.007868,-0.000924,-0.312126,-0.003241,0.002947,-0.002594,-4.3725,-0.9755,-0.0025,-0.00259576,0.00570233,-0.13124897,-0.00621548,0.01264530,-0.02132794,-0.1716,0.8851,-9.8422,0.008887,-0.001210,0.010819,27.2911,16.4949,34.1052,-3.5829,0.3140,113,0,0,-0.010073,0.016962,-0.312810,-0.001920,0.049216,0.000585,-1.4163,-1.9618,19.2769
14596,11.0,-0.007930,-0.000904,-0.312154,-0.003375,0.003652,-0.002560,-4.3637,-0.9640,0.0008,-0.00258781,0.00568994,-0.13125049,-0.00621649,0.01264458,-0.02132722,-0.1575,0.8418,-9.7923,0.015510,0.010290,0.011619,27.2911,16.4949,34.1052,-3.5829,0.3140,118,0,0,-0.010074,0.016997,-0.312663,-0.002599,0.049955,0.002290,-1.4107,-1.9593,19.3597
14607,11.0,-0.008450,-0.000872,-0.312049,-0.009052,0.004139,-0.000344,-4.3494,-0.9292,0.0241,-0.00258300,0.00547407,-0.13127860,-0.00623241,0.01268086,-0.02168381,-0.2004,0.8101,-9.7363,0.023227,0.002195,0.015362,27.2911,16.4949,34.1052,-3.5829,0.3120,118,-1,0,-0.010587,0.016904,-0.312077,-0.009227,0.048469,0.009149,-1.4238,-1.9193,19.5276
14618,11.0,-0.008416,-0.001337,-0.311516,-0.008201,-0.001455,0.006160,-4.3694,-0.9417,-0.0223,-0.00235480,0.00553511,-0.13126907,-0.00623094,0.01281895,-0.02314020,-0.2268,0.7605,-9.7718,0.018018,-0.011746,0.017302,26.8933,17.9432,34.4958,-3.5829,0.3120,110,0,-1,-0.011035,0.016805,-0.311874,-0.014216,0.046686,0.011466,-1.4360,-1.8982,19.6141
14629,11.0,-0.008389,-0.001348,-0.311348,-0.007665,-0.001795,0.007465,-4.3747,-0.9492,-0.0050,-0.00235799,0.00558891,-0.13126253,-0.00622761,0.01284958,-0.02342332,-0.2408,0.7218,-9.7950,-0.009030,-0.005743,0.017875,26.8933,17.9432,34.4958,-3.5829,0.3120,110,0,0,-0.010867,0.016440,-0.311756,-0.011906,0.041969,0.012324,-1.4394,-1.9057,19.6973
14640,11.0,-0.008412,-0.001373,-0.311265,-0.008007,-0.002084,0.007494,-4.3864,-0.9459,-0.0028,-0.00235631,0.00561891,-0.13125899,-0.00622557,0.01284959,-0.02342463,-0.2681,0.7382,-9.8009,-0.018236,0.006717,0.008724,26.8933,17.9432,34.4958,-3.5829,0.3130,108,0,0,-0.010831,0.016486,-0.312154,-0.011049,0.041186,0.005948,-1.4718,-1.9069,19.8525
14651,11.0,-0.008510,-0.001383,-0.311571,-0.008786,-0.002128,0.003126,-4.3898,-0.9293,0.0004,-0.00236166,0.00561646,-0.13125925,-0.00622427,0.01273669,-0.02237241,-0.2322,0.7440,-9.7917,-0.006332,0.021042,0.003280,26.8933,17.9432,34.4958,-3.5829,0.3130,108,0,0,-0.010856,0.016481,-0.312093,-0.011442,0.040425,0.006352,-1.5034,-1.8977,19.9239
14663,12.0,-0.008573,-0.001375,-0.311541,-0.008539,-0.002315,0.001939,-4.3822,-0.9227,-0.0005,-0.00237804,0.00563586,-0.13125713,-0.00622241,0.01273837,-0.02237359,-0.1871,0.7213,-9.9044,0.007512,0.008781,0.003954,26.8933,17.9432,34.4958,-3.5829,0.3130,113,0,0,-0.010995,0.016475,-0.311813,-0.012251,0.039553,0.008194,-1.5253,-1.8690,20.0678
14674,11.0,-0.008609,-0.001337,-0.311389,-0.007754,-0.000952,0.003037,-4.3574,-0.9226,-0.0003,-0.00240469,0.00566065,-0.13125445,-0.00622108,0.01277953,-0.02274209,-0.1510,0.8289,-9.8413,0.033201,0.000869,0.006100,26.8933,17.9432,34.4958,-3.5829,0.3130,109,0,0,-0.011043,0.016507,-0.312239,-0.012140,0.039619,0.002359,-1.5129,-1.8650,20.1439
14685,11.0,-0.008679,-0.001297,-0.311745,-0.007026,0.000791,-0.001427,-4.3325,-0.9154,0.0008,-0.00242310,0.00566660,-0.13125396,-0.00621690,0.01267445,-0.02170418,-0.1104,0.8724,-9.7942,0.035454,0.007579,0.010031,26.8933,17.9432,34.4958,-3.5829,0.3130,104,0,0,-0.011090,0.016551,-0.312215,-0.011900,0.040596,0.002402,-1.5071,-1.8573,19.7031
14696,11.0,-0.008762,-0.001291,-0.311653,-0.006776,0.001953,0.000989,-4.3282,-0.9017,0.0000,-0.00241881,0.00566309,-0.13125433,-0.00621771,0.01270272,-0.02198189,-0.1307,0.8609,-9.6840,0.007762,0.014914,0.023817,26.8933,17.9432,34.4958,-3.5829,0.3130,104,0,0,-0.011227,0.016625,-0.311992,-0.011952,0.043374,0.005532,-1.4959,-1.8354,19.8489
14707,11.0,-0.008809,-0.001298,-0.311634,-0.006813,0.001945,0.002542,-4.3338,-0.8931,-0.0024,-0.00240575,0.00567619,-0.13125250,-0.00621707,0.01270213,-0.02198225,-0.1923,0.7717,-9.6592,-0.005701,0.009595,0.036478,25.7079,16.5023,34.9095,-3.5248,0.3130,113,0,0,-0.010874,0.016778,-0.311927,-0.007493,0.045728,0.007461,-1.4949,-1.8372,19.9256
14718,11.0,-0.008719,-0.001305,-0.311792,-0.006580,0.000023,-0.000082,-4.3433,-0.9108,-0.0060,-0.00239704,0.00575139,-0.13124421,-0.00621259,0.01265122,-0.02149973,-0.3142,0.6024,-9.8587,-0.012816,-0.017650,0.028999,25.7079,16.5023,34.9095,-3.5248,0.3130,110,0,0,-0.010862,0.016823,-0.312296,-0.008029,0.043487,0.004788,-1.5295,-1.8278,20.1021
14729,11.0,-0.008661,-0.001320,-0.311798,-0.006092,-0.001476,-0.001110,-4.3538,-0.9225,-0.0031,-0.00239395,0.00580982,-0.13123849,-0.00620731,0.01265116,-0.02150244,-0.2562,0.6337,-9.9036,-0.015965,-0.010883,0.016725,25.7079,16.5023,34.9095,-3.5248,0.3130,112,0,0,-0.010785,0.016865,-0.312250,-0.007615,0.041720,0.004523,-1.5545,-1.8372,20.1851
14740,11.0,-0.008734,-0.001321,-0.311703,-0.006627,-0.001773,-0.000078,-4.3534,-0.9102,0.0005,-0.00240165,0.00580833,-0.13123864,-0.00620771,0.01268090,-0.02179872,-0.2100,0.7145,-9.8282,-0.001448,0.015034,0.001303,25.7079,16.5023,34.9095,-3.5248,0.3130,113,0,0,-0.010744,0.016891,-0.312060,-0.007327,0.040389,0.005731,-1.5621,-1.8414,20.2668
14751,11.0,-0.008776,-0.001300,-0.311899,-0.006730,-0.001102,-0.002147,-4.3393,-0.9062,0.0002,-0.00241824,0.00582264,-0.13123728,-0.00620550,0.01263355,-0.02128357,-0.2042,0.7774,-9.7828,0.018326,0.005442,-0.001358,25.7079,16.5023,34.9095,-3.5248,0.3130,111,0,0,-0.010860,0.016906,-0.312337,-0.008891,0.039279,0.002650,-1.5747,-1.8164,20.4106
14762,11.0,-0.008723,-0.001277,-0.311841,-0.005876,-0.000257,-0.001481,-4.3242,-0.9213,-0.0021,-0.00243231,0.00587783,-0.13123181,-0.00620053,0.01265597,-0.02151416,-0.2154,0.8006,-9.8280,0.020412,-0.015571,-0.000167,25.7079,16.5023,34.9095,-3.5248,0.3130,113,0,0,-0.010886,0.016945,-0.312309,-0.009282,0.039660,0.003099,-1.5842,-1.8100,20.4735
14773,11.0,-0.008614,-0.000753,-0.311858,-0.004338,0.005820,-0.001779,-4.2773,-0.9469,0.0079,-0.00265555,0.00595228,-0.13122450,-0.00619250,0.01268077,-0.02152011,-0.2016,0.7777,-9.8269,0.023410,-0.028160,0.006936,25.7079,16.5023,34.9095,-3.5248,0.3130,125,0,1,-0.011010,0.017428,-0.312276,-0.010891,0.045259,0.003361,-1.5574,-1.8188,20.5443
14784,11.0,-0.008547,-0.000710,-0.311932,-0.003550,0.005613,-0.003117,-4.2604,-0.9638,-0.0030,-0.00264684,0.00600196,-0.13121961,-0.00618575,0.01266837,-0.02139218,-0.2163,0.7512,-9.8713,0.028363,-0.019266,-0.000996,25.7079,16.5023,34.9095,-3.5248,0.3130,128,0,0,-0.011045,0.018026,-0.312449,-0.010714,0.050118,0.000982,-1.5261,-1.8454,20.1414
14795,11.0,-0.008566,-0.000705,-0.311966,-0.004157,0.005666,-0.003116,-4.2632,-0.9602,-0.0018,-0.00262108,0.00601256,-0.13121863,-0.00618444,0.01266523,-0.02139248,-0.2518,0.8073,-9.7966,0.001184,0.003866,0.006797,25.7079,16.5023,34.9095,-3.5618,0.3130,123,0,0,-0.011013,0.018105,-0.312316,-0.010361,0.049602,0.002286,-1.5348,-1.8504,20.2055
14806,11.0,-0.008604,-0.000711,-0.311878,-0.005446,0.005151,-0.001581,-4.2728,-0.9522,-0.0013,-0.00259171,0.00601900,-0.13121830,-0.00618572,0.01269010,-0.02172117,-0.3036,0.7647,-9.7915,-0.008802,0.009898,0.008254,27.2857,17.2302,34.4727,-3.5618,0.3120,129,0,0,-0.011029,0.018137,-0.312291,-0.010984,0.049169,0.002803,-1.5332,-1.8476,20.2838
14817,11.0,-0.008651,-0.000721,-0.311457,-0.006911,0.004160,0.003483,-4.2844,-0.9431,-0.0008,-0.00256473,0.00602742,-0.13121800,-0.00619368,0.01278540,-0.02286317,-0.3251,0.7184,-9.8026,-0.012740,0.012330,0.005783,27.2857,17.2302,34.4727,-3.5618,0.3120,122,0,0,-0.011089,0.018149,-0.311772,-0.012750,0.046429,0.008446,-1.5743,-1.8306,20.4370
14828,11.0,-0.008717,-0.000712,-0.311329,-0.008248,0.003489,0.003852,-4.2848,-0.9330,-0.0003,-0.00255008,0.00603461,-0.13121772,-0.00619569,0.01280501,-0.02311562,-0.3082,0.7250,-9.8720,0.002355,0.013945,0.000907,27.2857,17.2302,34.4727,-3.5618,0.3120,128,0,0,-0.011125,0.018155,-0.311688,-0.013588,0.044756,0.008647,-1.6021,-1.8230,20.5098
14839,11.0,-0.008823,-0.000700,-0.311285,-0.009306,0.002664,0.004206,-4.2832,-0.9168,0.0001,-0.00254039,0.00603060,-0.13121834,-0.00619618,0.01280380,-0.02311539,-0.2518,0.6917,-9.7747,0.004193,0.021261,-0.004106,27.2857,17.2302,34.4727,-3.5618,0.3130,130,0,0,-0.011174,0.018169,-0.311447,-0.014406,0.043479,0.010114,-1.6023,-1.8152,20.5861
14850,11.0,-0.008950,-0.000678,-0.311624,-0.009986,0.002530,0.001574,-4.2745,-0.8987,0.0002,-0.00253734,0.00602283,-0.13121910,-0.00617882,0.01271810,-0.02209032,-0.2000,0.7274,-9.6275,0.014086,0.023697,-0.006816,27.2857,17.2302,34.4727,-3.5618,0.3130,122,0,0,-0.011400,0.018164,-0.312140,-0.016225,0.040956,0.003221,-1.6153,-1.7790,20.7300
14861,11.0,-0.009026,-0.000177,-0.311596,-0.009839,0.007747,0.003545,-4.2435,-0.8900,0.0024,-0.00273173,0.00603670,-0.13121407,-0.00617838,0.01272564,-0.02209298,-0.1787,0.7281,-9.6248,0.003613,0.013885,-0.007277,27.2857,17.2302,34.4727,-3.5618,0.3130,126,0,1,-0.011529,0.018162,-0.311973,-0.016861,0.040168,0.006785,-1.6266,-1.7565,20.7925
14872,11.0,-0.009053,-0.000154,-0.311428,-0.009457,0.006959,0.006300,-4.2403,-0.8912,-0.0013,-0.00270633,0.00607054,-0.13121161,-0.00618460,0.01275138,-0.02241745,-0.2066,0.7206,-9.6857,0.010139,0.002499,-0.003730,27.2857,17.2302,34.4727,-3.5618,0.3120,124,0,0,-0.011778,0.018584,-0.311893,-0.018673,0.044502,0.009064,-1.6102,-1.7444,20.8599
14883,11.0,-0.008993,-0.000111,-0.311225,-0.008112,0.006901,0.008354,-4.2241,-0.9110,-0.0023,-0.00269216,0.00613788,-0.13120593,-0.00619076,0.01277817,-0.02275572,-0.2040,0.7639,-9.7521,0.028389,-0.019228,-0.001779,27.2857,17.2302,34.4727,-3.5618,0.3120,117,0,0,-0.011838,0.018662,-0.311550,-0.017377,0.043229,0.013378,-1.6037,-1.7431,20.4359
14894,11.0,-0.008907,-0.000061,-0.311042,-0.006767,0.007090,0.008959,-4.2041,-0.9352,-0.0027,-0.00268046,0.00620984,-0.13119960,-0.00619331,0.01279764,-0.02300719,-0.2207,0.7846,-9.8472,0.033923,-0.025202,0.000019,27.2857,17.2302,34.4727,-3.5618,0.3120,117,0,0,-0.011807,0.018738,-0.311412,-0.016242,0.043191,0.014341,-1.6093,-1.7510,20.4971
14906,12.0,-0.008339,-0.000048,-0.310943,-0.000665,0.007033,0.007690,-4.2080,-0.9837,-0.0116,-0.00264904,0.00647424,-0.13117510,-0.00617403,0.01279629,-0.02301939,-0.2650,0.8062,-9.9040,0.000639,-0.017322,0.003349,25.7079,17.5830,33.6685,-3.5618,0.3130,113,1,0,-0.011277,0.019077,-0.312007,-0.009375,0.045724,0.004420,-1.5954,-1.7934,20.6209
14917,11.0,-0.008246,-0.000050,-0.311473,-0.000583,0.005539,-0.000663,-4.2182,-0.9993,-0.0015,-0.00261865,0.00651924,-0.13117187,-0.00613840,0.01266988,-0.02147987,-0.2768,0.6816,-9.9310,-0.009152,-0.017926,0.007123,25.7079,17.5830,33.6685,-3.5618,0.3130,117,0,0,-0.010790,0.019291,-0.311867,-0.004646,0.047377,0.004970,-1.5950,-1.8170,20.6865
14928,11.0,-0.008161,-0.000058,-0.311487,-0.000569,0.003841,-0.001745,-4.2308,-1.0127,-0.0005,-0.00259301,0.00655814,-0.13116950,-0.00613321,0.01266657,-0.02148174,-0.2751,0.6513,-9.9064,-0.014231,-0.015404,-0.000092,25.7079,17.5830,33.6685,-3.5618,0.3130,116,0,0,-0.010638,0.019385,-0.311783,-0.004862,0.044472,0.003557,-1.6291,-1.8326,20.8371
14939,11.0,-0.008617,-0.000058,-0.311384,-0.005956,0.002604,-0.000499,-4.2361,-0.9895,-0.0002,-0.00257819,0.00637937,-0.13118255,-0.00616438,0.01268901,-0.02179324,-0.2203,0.6626,-9.8275,-0.005437,-0.007739,-0.012279,25.7079,17.5830,33.6685,-3.5618,0.3130,110,-1,0,-0.010570,0.019427,-0.312241,-0.004824,0.042824,-0.002283,-1.6536,-1.8384,20.9055
14950,11.0,-0.009112,-0.000083,-0.311774,-0.010435,0.002300,-0.005274,-4.2521,-0.9619,0.0004,-0.00255588,0.00620932,-0.13119555,-0.00616802,0.01261153,-0.02082240,-0.1501,0.7684,-9.8361,-0.020691,0.001195,-0.014762,25.7079,17.5830,33.6685,-3.5618,0.3130,109,-1,0,-0.010958,0.019299,-0.312263,-0.009526,0.039920,-0.002133,-1.6579,-1.8281,20.9825
14962,12.0,-0.009186,-0.000129,-0.311734,-0.009576,0.003560,-0.003020,-4.2784,-0.9521,-0.0019,-0.00252161,0.00622852,-0.13119404,-0.00617087,0.01262640,-0.02107412,-0.1432,0.9172,-9.6973,-0.031231,0.015625,-0.009132,25.7079,17.5830,33.6685,-3.5618,0.3130,110,0,0,-0.011367,0.019129,-0.312161,-0.013009,0.038610,0.000297,-1.7049,-1.8053,21.1117
14973,11.0,-0.009240,-0.000173,-0.311766,-0.008332,0.004821,-0.002807,-4.3015,-0.9449,-0.0032,-0.00248383,0.00624692,-0.13119192,-0.00616884,0.01262229,-0.02107496,-0.1029,0.9533,-9.7685,-0.028163,0.012977,-0.009219,25.7079,17.5830,33.6685,-3.5618,0.3130,116,0,0,-0.011399,0.019095,-0.312479,-0.012978,0.039327,-0.001918,-1.7513,-1.7887,21.1658
14984,11.0,-0.009257,-0.000202,-0.311877,-0.007784,0.006388,-0.004593,-4.3174,-0.9447,-0.0051,-0.00244604,0.00627708,-0.13118789,-0.00616190,0.01260248,-0.02088902,-0.1967,0.9928,-9.8673,-0.016665,0.004373,-0.004768,25.7079,17.5830,33.6685,-3.5618,0.3130,107,0,0,-0.011431,0.019060,-0.312394,-0.012906,0.040545,0.000237,-1.8019,-1.7702,20.7820
14995,11.0,-0.009353,0.000228,-0.311931,-0.008167,0.014032,-0.005189,-4.3248,-0.9251,0.0077,-0.00257830,0.00627362,-0.13118897,-0.00616243,0.01262163,-0.02088857,-0.1945,1.1098,-9.8289,-0.043409,0.025582,0.014224,26.8933,17.9432,34.0821,-3.5618,0.3130,112,0,1,-0.011461,0.019029,-0.312234,-0.013753,0.043225,0.001804,-1.8155,-1.7651,20.8555
15006,11.0,-0.009513,0.000141,-0.311865,-0.009314,0.014959,-0.003772,-4.3811,-0.8908,-0.0004,-0.00247620,0.00624735,-0.13119338,-0.00616904,0.01263756,-0.02120264,-0.2012,1.0993,-9.7784,-0.065156,0.042547,0.026019,26.8933,17.9432,34.0821,-3.5618,0.3120,108,0,0,-0.011683,0.019391,-0.312218,-0.016720,0.048992,0.001707,-1.8637,-1.7431,20.9219
15017,11.0,-0.009648,0.000600,-0.311437,-0.010104,0.020557,0.001653,-4.3842,-0.8647,0.0087,-0.00258627,0.00623479,-0.13119631,-0.00617942,0.01277684,-0.02236533,-0.1994,0.9887,-9.7819,-0.031778,0.032304,0.031001,26.8933,17.9432,34.0821,-3.4825,0.3120,116,0,1,-0.011911,0.019202,-0.311732,-0.019630,0.048956,0.007100,-1.9750,-1.6807,21.0941
15028,11.0,-0.009682,0.000580,-0.311352,-0.009556,0.019440,0.001766,-4.4158,-0.8595,-0.0125,-0.00248793,0.00626482,-0.13118961,-0.00617562,0.01278402,-0.02255016,-0.1851,0.9217,-9.8570,-0.026376,0.009048,0.038318,26.8933,17.9432,34.0821,-3.4825,0.3130,117,0,0,-0.012174,0.019572,-0.311658,-0.022333,0.053205,0.007610,-1.9856,-1.6592,21.1860
15039,11.0,-0.009699,0.001080,-0.311335,-0.008909,0.023718,0.001258,-4.4053,-0.8586,-0.0013,-0.00259543,0.00629903,-0.13118356,-0.00617003,0.01280186,-0.02255167,-0.1853,0.8801,-9.8399,-0.009351,0.003143,0.036672,26.8933,17.9432,34.0821,-3.4825,0.3130,109,0,1,-0.012397,0.019985,-0.312117,-0.023049,0.055484,0.001345,-2.0387,-1.6418,21.3635
15050,11.0,-0.009793,0.001087,-0.311655,-0.008536,0.022548,-0.002012,-4.4261,-0.8429,-0.0077,-0.00249305,0.00630017,-0.13118179,-0.00616825,0.01267298,-0.02172245,-0.1208,0.9184,-9.7345,-0.007921,0.019050,0.029833,26.8933,17.9432,34.0821,-3.4825,0.3130,119,0,0,-0.012427,0.020008,-0.312104,-0.022165,0.054004,0.001450,-2.0711,-1.6334,21.4457
15061,11.0,-0.009849,0.001096,-0.311676,-0.007821,0.021648,-0.001771,-4.4444,-0.8342,-0.0113,-0.00239807,0.00631358,-0.13117687,-0.00616642,0.01266018,-0.02172310,-0.1218,0.9353,-9.7666,-0.005851,0.010631,0.035433,26.8933,17.9432,34.0821,-3.4825,0.3130,125,0,0,-0.012504,0.020007,-0.311974,-0.021658,0.053026,0.003686,-2.0813,-1.6207,21.5376
15072,11.0,-0.009832,0.001085,-0.311605,-0.007350,0.020552,-0.001240,-4.4731,-0.8370,-0.0176,-0.00230006,0.00635308,-0.13116650,-0.00615969,0.01268175,-0.02195958,-0.2140,0.9368,-9.8394,-0.021520,-0.001706,0.042030,26.8933,17.9432,34.0821,-3.4825,0.3110,124,0,0,-0.012615,0.020011,-0.311051,-0.020728,0.051398,0.013998,-2.1271,-1.5946,21.7082
15083,11.0,-0.009796,0.001076,-0.310753,-0.006694,0.019692,0.007011,-4.4969,-0.8440,-0.0178,-0.00221351,0.00639719,-0.13115542,-0.00614052,0.01300066,-0.02410269,-0.2141,0.9559,-9.9562,-0.017854,-0.006497,0.039819,26.8933,17.9432,34.0821,-3.4825,0.3110,128,0,0,-0.012604,0.020024,-0.310912,-0.019871,0.050509,0.013889,-2.1592,-1.5991,21.2556
15094,11.0,-0.009819,0.001068,-0.310618,-0.006716,0.019584,0.005564,-4.5200,-0.8390,-0.0118,-0.00212386,0.00641689,-0.13114955,-0.00613463,0.01300866,-0.02428390,-0.2099,1.0269,-9.9918,-0.014440,0.006142,0.038680,26.8933,17.9432,34.0821,-3.4825,0.3130,128,0,0,-0.012574,0.020046,-0.310779,-0.019239,0.049987,0.012820,-2.1755,-1.6021,21.3476
15106,12.0,-0.010000,0.001074,-0.310562,-0.008359,0.020225,0.003783,-4.5457,-0.8012,0.0044,-0.00202972,0.00638099,-0.13115713,-0.00614423,0.01298326,-0.02428268,-0.2000,1.0797,-9.9273,-0.015660,0.038749,0.052768,25.3127,16.8626,34.0821,-3.4825,0.3130,129,0,0,-0.012228,0.020210,-0.311708,-0.015282,0.051708,-0.001662,-2.2282,-1.5961,21.5069
15117,11.0,-0.010238,0.001057,-0.311268,-0.010674,0.019300,-0.005559,-4.5767,-0.7531,0.0092,-0.00193039,0.00632944,-0.13116880,-0.00617047,0.01264900,-0.02248704,-0.2124,0.9627,-9.8596,-0.022550,0.053408,0.069915,25.3127,16.8626,34.0821,-3.4825,0.3130,123,0,0,-0.012364,0.020168,-0.311642,-0.017144,0.051112,-0.001710,-2.2714,-1.5648,21.6036
15128,11.0,-0.010493,0.001541,-0.311326,-0.012989,0.023165,-0.004927,-4.5758,-0.7032,0.0208,-0.00202986,0.00628079,-0.13118173,-0.00618223,0.01267236,-0.02248381,-0.2104,0.8745,-9.7358,-0.022852,0.056872,0.073680,25.3127,16.8626,34.0821,-3.4825,0.3130,126,0,1,-0.012916,0.020444,-0.311685,-0.023151,0.052179,-0.002148,-2.3195,-1.4860,21.8326
15139,11.0,-0.010744,0.002036,-0.311280,-0.014891,0.026326,-0.002724,-4.5717,-0.6565,0.0162,-0.00211840,0.00624327,-0.13119149,-0.00618848,0.01273138,-0.02271310,-0.1945,0.8372,-9.6969,-0.015586,0.054612,0.073779,25.3127,16.8626,34.0821,-3.4825,0.3100,126,0,1,-0.013291,0.020788,-0.310337,-0.026502,0.054128,0.013496,-2.3239,-1.4462,21.9506
15150,11.0,-0.011005,0.002547,-0.310045,-0.016975,0.029130,0.013284,-4.5592,-0.6103,0.0149,-0.00220930,0.00620849,-0.13120028,-0.00617849,0.01328750,-0.02572125,-0.2142,0.8158,-9.6570,-0.005817,0.055470,0.071074,25.3127,16.8626,34.0821,-3.5195,0.3100,121,0,1,-0.013675,0.021142,-0.310195,-0.029410,0.055507,0.014882,-2.3464,-1.4053,22.0618
15161,11.0,-0.010740,0.002583,-0.309807,-0.012730,0.026787,0.016222,-4.5723,-0.6016,-0.0487,-0.00210398,0.00637211,-0.13116288,-0.00616132,0.01331431,-0.02593210,-0.1800,0.8550,-9.6188,0.005932,0.045836,0.069556,25.3127,16.8626,34.0821,-3.5195,0.3120,126,1,0,-0.013880,0.021625,-0.309738,-0.028311,0.055092,0.019780,-2.3748,-1.3408,22.2692
15172,11.0,-0.010910,0.002607,-0.309623,-0.013878,0.024499,0.017340,-4.5889,-0.5724,-0.0038,-0.00200383,0.00636280,-0.13116395,-0.00616198,0.01330669,-0.02593081,-0.1871,0.8537,-9.6963,-0.001664,0.035079,0.062960,25.3127,16.8626,34.0821,-3.5195,0.3120,125,0,0,-0.014082,0.021598,-0.310812,-0.029176,0.052380,0.008174,-2.3796,-1.3085,22.3862
15183,11.0,-0.011090,0.003607,-0.310209,-0.014541,0.033532,0.009429,-4.5545,-0.5417,0.0198,-0.00226130,0.00635615,-0.13116930,-0.00616731,0.01299494,-0.02406409,-0.1382,0.8876,-9.6948,-0.008137,0.037345,0.059954,25.3127,16.8626,34.0821,-3.5195,0.3120,122,0,2,-0.014746,0.022379,-0.310523,-0.033010,0.057208,0.011920,-2.3813,-1.2659,22.0387
15194,11.0,-0.011238,0.004118,-0.310099,-0.014975,0.036434,0.010505,-4.5530,-0.5178,0.0023,-0.00230987,0.00636185,-0.13116898,-0.00616713,0.01299653,-0.02406489,-0.1530,0.9130,-9.6945,-0.010332,0.030715,0.057982,25.3127,16.8626,34.0821,-3.5195,0.3120,117,0,1,-0.015081,0.022767,-0.310261,-0.034694,0.059034,0.014926,-2.4021,-1.2368,22.1336
