timestamp_ms,dt_ms,pos_x,pos_y,pos_z,vel_x,vel_y,vel_z,roll_deg,pitch_deg,yaw_deg,gyro_bias_x,gyro_bias_y,gyro_bias_z,accel_bias_x,accel_bias_y,accel_bias_z,raw_accel_x,raw_accel_y,raw_accel_z,raw_gyro_x,raw_gyro_y,raw_gyro_z,raw_baro_alt,raw_tof,raw_flow_squal,raw_flow_dx,raw_flow_dy,dev_pos_x,dev_pos_y,dev_pos_z,dev_vel_x,dev_vel_y,dev_vel_z,dev_roll_deg,dev_pitch_deg,dev_yaw_deg
11499,10.0,0.000018,0.000001,-0.037059,0.000862,0.000803,0.000630,-0.0024,-0.0016,-0.0010,0.00000000,0.00000000,-0.00190810,-0.00107647,0.00115986,0.00000000,-0.1818,0.1462,-9.7377,-0.003905,-0.001695,-0.003643,28.8695,0.0370,136,0,0,0.000090,0.000203,-0.036951,-0.000940,0.002369,-0.001818,-0.9760,-0.9147,-0.1100
11510,11.0,0.000018,0.000018,-0.037048,0.000408,0.001235,0.001301,-0.4763,-0.4878,0.0015,0.00000171,0.00000176,-0.00190810,-0.00109598,0.00117924,0.00000000,-0.1679,0.1636,-9.7438,-0.002645,-0.001243,-0.001172,28.8695,0.0360,132,0,0,0.000104,0.000218,-0.036375,-0.000840,0.002276,0.007282,-0.9651,-0.9287,-0.1095
11521,11.0,0.000031,0.000021,-0.038857,0.000008,0.001888,-0.078418,-0.4997,-0.5068,0.0038,0.00000176,0.00000180,-0.00190810,-0.00115053,0.00125713,0.00005058,-0.1667,0.2075,-9.7448,-0.001551,-0.005178,0.001199,28.8695,0.0360,128,0,0,0.000111,0.000227,-0.036343,-0.000776,0.002217,0.008014,-0.9700,-0.9356,-0.1090
11532,11.0,0.000032,0.000044,-0.036048,0.000067,0.001938,0.031712,-0.7898,-0.6590,0.0046,0.00000494,0.00000343,-0.00190810,-0.00119463,0.00131336,-0.00004079,-0.1611,0.2305,-9.7572,-0.002794,-0.002696,-0.003190,28.8695,0.0360,133,0,0,0.000119,0.000233,-0.036257,-0.000776,0.002542,0.009241,-0.9701,-0.9372,-0.1076
11543,11.0,0.000042,0.000052,-0.035807,-0.000165,0.002064,0.029355,-0.8169,-0.6798,0.0044,0.00000509,0.00000355,-0.00190810,-0.00129560,0.00144092,0.00000001,-0.1736,0.1966,-9.7522,-0.004056,-0.002129,-0.002806,28.8695,0.0360,136,0,0,0.000135,0.000250,-0.036145,-0.000717,0.002683,0.010423,-0.9981,-0.9413,-0.1098
11554,11.0,0.000043,0.000069,-0.035481,-0.000085,0.001868,0.029898,-0.9044,-0.7853,0.0075,0.00000692,0.00000591,-0.00190810,-0.00133426,0.00151026,0.00000161,-0.1851,0.1923,-9.7562,-0.003451,-0.001214,0.000046,28.7981,0.0360,137,0,0,0.000143,0.000259,-0.036005,-0.000660,0.002622,0.011822,-1.0058,-0.9446,-0.1105
11565,11.0,0.000051,0.000080,-0.035876,-0.000233,0.001646,0.017118,-0.9222,-0.8061,0.0090,0.00000712,0.00000615,-0.00190810,-0.00145836,0.00161256,0.00041632,-0.1859,0.1666,-9.7533,-0.002798,-0.003227,0.000442,28.7981,0.0360,138,0,0,0.000159,0.000276,-0.035776,-0.000719,0.002664,0.013754,-1.0112,-0.9536,-0.1078
11576,11.0,0.000055,0.000093,-0.035683,-0.000057,0.001518,0.018022,-0.9622,-0.8492,0.0089,0.00000860,0.00000766,-0.00190809,-0.00151759,0.00165419,0.00041798,-0.1681,0.1878,-9.7239,-0.000985,-0.002728,-0.002903,28.7981,0.0360,138,0,0,0.000168,0.000284,-0.035632,-0.000898,0.002497,0.014939,-1.0109,-0.9538,-0.1068
11587,11.0,0.000063,0.000103,-0.035536,-0.000154,0.001506,0.017821,-0.9736,-0.8649,0.0088,0.00000885,0.00000800,-0.00190809,-0.00164178,0.00174392,0.00051133,-0.1872,0.1877,-9.7468,-0.001354,-0.001858,-0.001904,28.7981,0.0360,137,0,0,0.000175,0.000293,-0.035813,-0.000849,0.002444,0.012669,-1.0145,-0.9588,-0.1077
11598,11.0,0.000067,0.000115,-0.035800,0.000019,0.001372,0.011959,-0.9962,-0.8931,0.0117,0.00001009,0.00000942,-0.00190809,-0.00168438,0.00176962,0.00137901,-0.1691,0.1851,-9.7541,-0.001208,-0.004463,0.002132,28.7981,0.0360,135,0,0,0.000191,0.000310,-0.035568,-0.000930,0.002407,0.014538,-1.0207,-0.9588,-0.0280
11609,11.0,0.000074,0.000124,-0.035696,0.000166,0.001529,0.012078,-1.0069,-0.9036,0.0098,0.00001048,0.00000976,-0.00190809,-0.00176903,0.00186788,0.00146911,-0.1617,0.2103,-9.7573,-0.001698,-0.003395,-0.005160,28.7981,0.0360,135,0,0,0.000199,0.000316,-0.035418,-0.000781,0.002719,0.015451,-1.0218,-0.9601,-0.0282
11620,11.0,0.000079,0.000136,-0.035558,0.000136,0.001521,0.012884,-1.0420,-0.9382,0.0111,0.00001373,0.00001291,-0.00190809,-0.00172731,0.00183995,0.00146877,-0.1970,0.2150,-9.7308,-0.003685,-0.005512,-0.001160,28.7981,0.0360,135,0,0,0.000207,0.000325,-0.035703,-0.000723,0.002688,0.011532,-1.0326,-0.9617,-0.0296
11631,11.0,0.000087,0.000146,-0.035786,0.000096,0.001437,0.008989,-1.0512,-0.9488,0.0121,0.00001420,0.00001342,-0.00190809,-0.00179873,0.00190423,0.00293346,-0.1880,0.1934,-9.7490,-0.002506,-0.004048,-0.000414,28.7612,0.0360,133,0,0,0.000222,0.000340,-0.035474,-0.000910,0.002866,0.013732,-1.0380,-0.9779,-0.0286
11641,10.0,0.000093,0.000155,-0.035693,0.000173,0.001264,0.009469,-1.0567,-0.9669,0.0122,0.00001452,0.00001561,-0.00190809,-0.00179608,0.00196879,0.00293475,-0.1854,0.1797,-9.7556,-0.001954,-0.003095,-0.003533,28.7612,0.0360,132,0,0,0.000231,0.000347,-0.035352,-0.001022,0.002875,0.014602,-1.0390,-0.9783,-0.0283
11652,11.0,0.000100,0.000166,-0.035603,0.000435,0.001133,0.009953,-1.0620,-0.9710,0.0111,0.00001479,0.00001597,-0.00190809,-0.00184485,0.00200574,0.00303828,-0.1547,0.1792,-9.7412,-0.004036,-0.000637,-0.003554,28.7612,0.0360,141,0,0,0.000246,0.000364,-0.035571,-0.000968,0.002739,0.011334,-1.0411,-0.9827,-0.0287
11663,11.0,0.000108,0.000175,-0.035778,0.000609,0.000964,0.007232,-1.0590,-0.9699,0.0094,0.00001386,0.00001508,-0.00190809,-0.00189369,0.00204872,0.00485563,-0.1542,0.1693,-9.7449,-0.000064,-0.002560,-0.004387,28.7612,0.0360,138,0,0,0.000255,0.000373,-0.035468,-0.000875,0.002681,0.012225,-1.0422,-0.9772,-0.0291
11675,12.0,0.000118,0.000186,-0.035698,0.000723,0.000483,0.008015,-1.0592,-0.9733,0.0094,0.00001359,0.00001522,-0.00190807,-0.00190753,0.00201852,0.00495151,-0.1606,0.1354,-9.7250,-0.002890,-0.003509,-0.001445,28.7612,0.0360,138,0,0,0.000262,0.000382,-0.035341,-0.000697,0.002521,0.013315,-1.0414,-0.9774,-0.0301
11686,11.0,0.000126,0.000192,-0.035607,0.000732,0.000332,0.008480,-1.0484,-0.9793,0.0116,0.00001029,0.00001573,-0.00190808,-0.00190377,0.00211061,0.00495295,-0.1711,0.1522,-9.7602,-0.001385,-0.006316,-0.000162,28.7612,0.0360,133,0,0,0.000280,0.000396,-0.035594,-0.000710,0.002317,0.010015,-1.0354,-0.9745,0.0933
11697,11.0,0.000135,0.000199,-0.035784,0.000809,0.000463,0.005728,-1.0483,-0.9816,0.0109,0.00000991,0.00001577,-0.00190807,-0.00187148,0.00203909,0.00722841,-0.1633,0.1851,-9.7620,-0.002527,-0.002975,-0.002561,28.7294,0.0360,137,0,0,0.000287,0.000403,-0.035489,-0.000673,0.002231,0.011022,-1.0316,-0.9775,0.0942
11708,11.0,0.000144,0.000206,-0.035718,0.000769,0.000608,0.006293,-1.0530,-0.9867,0.0091,0.00001148,0.00001664,-0.00190805,-0.00184349,0.00195827,0.00722655,-0.1757,0.1949,-9.7480,-0.001368,-0.004251,-0.004167,28.7294,0.0350,134,0,0,0.000295,0.000411,-0.035379,-0.000622,0.002242,0.011869,-1.0317,-0.9778,0.0935
11719,11.0,0.000154,0.000213,-0.035649,0.000631,0.000858,0.006766,-1.0556,-0.9887,0.0083,0.00001162,0.00001695,-0.00190805,-0.00186444,0.00196755,0.00726182,-0.1880,0.2066,-9.7519,-0.003362,-0.001370,-0.002981,28.7294,0.0350,133,0,0,0.000311,0.000426,-0.034947,-0.000763,0.002359,0.015450,-1.0359,-0.9823,0.0914
11730,11.0,0.000162,0.000222,-0.035247,0.000722,0.000974,0.011110,-1.0644,-0.9908,0.0065,0.00001504,0.00001636,-0.00190803,-0.00195813,0.00193873,0.00413289,-0.1634,0.2050,-9.7548,-0.001979,-0.005094,-0.002838,28.7294,0.0350,138,0,0,0.000319,0.000435,-0.034787,-0.000742,0.002366,0.016424,-1.0417,-0.9848,0.0904
11741,11.0,0.000172,0.000230,-0.035123,0.000598,0.001077,0.012004,-1.0689,-0.9941,0.0079,0.00001564,0.00001683,-0.00190803,-0.00198480,0.00197296,0.00416349,-0.1884,0.2010,-9.7176,-0.004394,-0.003236,0.000137,28.7294,0.0360,138,0,0,0.000327,0.000441,-0.034618,-0.000722,0.002650,0.017408,-1.0427,-0.9853,0.0900
11752,11.0,0.000181,0.000239,-0.034986,0.000653,0.000974,0.012801,-1.0709,-0.9971,0.0085,0.00001555,0.00001730,-0.00190804,-0.00200137,0.00201510,0.00416457,-0.1713,0.1795,-9.7302,-0.002936,-0.002948,-0.001357,28.7294,0.0360,135,0,0,0.000343,0.000457,-0.035292,-0.000635,0.002455,0.008980,-1.0482,-0.9886,0.0886
11763,11.0,0.000190,0.000248,-0.035480,0.000699,0.000760,0.005706,-1.0726,-0.9991,0.0075,0.00001549,0.00001758,-0.00190803,-0.00190679,0.00189510,0.01065277,-0.1719,0.1646,-9.7554,-0.002677,-0.001793,-0.003283,28.7294,0.0360,134,0,0,0.000351,0.000465,-0.035201,-0.000597,0.002392,0.010011,-1.0474,-0.9893,0.0894
11774,11.0,0.000199,0.000257,-0.035414,0.000742,0.000822,0.006312,-1.0768,-1.0010,0.0074,0.00001693,0.00001777,-0.00190801,-0.00192001,0.00185462,0.01065228,-0.1709,0.1931,-9.7409,-0.003301,-0.002362,-0.001210,28.7294,0.0360,139,0,0,0.000367,0.000481,-0.035590,-0.000574,0.002150,0.005080,-1.0465,-0.9914,0.0894
11785,11.0,0.000208,0.000265,-0.035366,0.000694,0.000713,0.006613,-1.0770,-1.0039,0.0076,0.00001689,0.00001809,-0.00190800,-0.00192899,0.00184803,0.01091447,-0.1803,0.1748,-9.7411,-0.000394,-0.003782,-0.001479,28.7849,0.0360,137,0,0,0.000375,0.000489,-0.035554,-0.000563,0.002241,0.005814,-1.0473,-0.9913,0.0895
11796,11.0,0.000217,0.000274,-0.035677,0.000706,0.000850,0.002497,-1.0823,-1.0071,0.0067,0.00001994,0.00001903,-0.00190798,-0.00185415,0.00169021,0.01485834,-0.1762,0.2030,-9.7491,-0.002175,-0.002937,-0.002230,28.7849,0.0360,140,0,0,0.000383,0.000497,-0.035491,-0.000576,0.002174,0.006751,-1.0481,-0.9925,0.1350
11807,11.0,0.000226,0.000281,-0.035666,0.000621,0.000936,0.002768,-1.0857,-1.0113,0.0066,0.00002051,0.00001969,-0.00190798,-0.00187526,0.00170778,0.01505667,-0.1879,0.1997,-9.7456,-0.004053,-0.005036,-0.002149,28.7849,0.0370,137,0,0,0.000400,0.000513,-0.036348,-0.000472,0.002321,-0.002959,-1.0531,-0.9939,0.1342
11818,11.0,0.000235,0.000290,-0.035633,0.000753,0.001051,0.003141,-1.0914,-1.0125,0.0065,0.00002484,0.00001842,-0.00190794,-0.00193511,0.00162266,0.01505617,-0.1641,0.2077,-9.7575,-0.001300,-0.003918,0.000351,28.7849,0.0370,137,0,0,0.000409,0.000519,-0.036373,-0.000588,0.002543,-0.002175,-1.0544,-0.9946,0.1342
11829,11.0,0.000245,0.000300,-0.036381,0.000775,0.000828,-0.005759,-1.0939,-1.0147,0.0067,0.00002503,0.00001872,-0.00190794,-0.00180930,0.00148231,0.02286617,-0.1753,0.1690,-9.7492,-0.003482,-0.002795,-0.001710,28.7849,0.0370,139,0,0,0.000425,0.000536,-0.036428,-0.000486,0.002502,-0.000838,-1.0607,-0.9969,0.1343
11841,12.0,0.000255,0.000309,-0.036447,0.000860,0.000780,-0.005326,-1.0961,-1.0149,0.0045,0.00002437,0.00001754,-0.00190793,-0.00184574,0.00150393,0.02286719,-0.1671,0.1838,-9.7480,-0.004119,-0.001844,-0.004810,28.8087,0.0360,139,0,0,0.000433,0.000544,-0.036186,-0.000460,0.002472,0.002702,-1.0623,-0.9978,0.1340
11852,11.0,0.000263,0.000317,-0.036538,0.001073,0.000683,-0.005330,-1.0978,-1.0174,0.0045,0.00002435,0.00001690,-0.00190795,-0.00182091,0.00149684,0.02320638,-0.1503,0.1794,-9.7468,-0.002717,-0.005003,-0.002266,28.8087,0.0360,137,0,0,0.000441,0.000552,-0.036155,-0.000386,0.002433,0.003527,-1.0634,-0.9976,0.1328
11863,11.0,0.000273,0.000326,-0.036255,0.001106,0.000740,-0.000900,-1.0987,-1.0149,0.0038,0.00002470,0.00001436,-0.00190794,-0.00190378,0.00152930,0.01997459,-0.1648,0.1917,-9.7462,-0.001150,0.000532,-0.002096,28.8087,0.0360,137,0,0,0.000457,0.000569,-0.036111,-0.000167,0.002131,0.004674,-1.0636,-0.9953,0.1321
11874,11.0,0.000283,0.000334,-0.036288,0.001096,0.000847,-0.000657,-1.1021,-1.0169,0.0038,0.00002508,0.00001372,-0.00190797,-0.00188255,0.00153477,0.02022419,-0.1709,0.2013,-9.7359,-0.004840,-0.004113,-0.002355,28.8087,0.0370,137,0,0,0.000466,0.000578,-0.036060,-0.000110,0.002109,0.005487,-1.0641,-0.9932,0.1324
11885,11.0,0.000294,0.000342,-0.036292,0.000903,0.000718,-0.000145,-1.1011,-1.0218,0.0067,0.00002225,0.00001746,-0.00190803,-0.00177628,0.00160393,0.02022363,-0.1939,0.1752,-9.7398,-0.001680,-0.003330,-0.000444,28.8087,0.0370,134,0,0,0.000474,0.000585,-0.036668,-0.000080,0.002217,-0.000790,-1.0647,-0.9937,0.1320
11896,11.0,0.000304,0.000351,-0.036696,0.000815,0.000729,-0.004533,-1.1031,-1.0241,0.0070,0.00002217,0.00001768,-0.00190802,-0.00171728,0.00153163,0.02393423,-0.1857,0.1899,-9.7494,-0.003208,-0.003375,-0.001329,28.8087,0.0370,141,0,0,0.000491,0.000601,-0.036665,-0.000208,0.002096,0.001109,-1.0608,-0.9976,0.0807
11907,11.0,0.000313,0.000359,-0.036745,0.000773,0.000802,-0.004256,-1.1072,-1.0274,0.0055,0.00002445,0.00001960,-0.00190802,-0.00168393,0.00148476,0.02393280,-0.1833,0.1991,-9.7573,-0.004104,-0.003209,-0.004186,28.8087,0.0360,138,0,0,0.000499,0.000609,-0.036299,-0.000207,0.002081,0.005780,-1.0617,-0.9993,0.0805
11918,11.0,0.000323,0.000367,-0.036797,0.000818,0.000688,-0.004213,-1.1105,-1.0295,0.0048,0.00002428,0.00001981,-0.00190801,-0.00168764,0.00148005,0.02398873,-0.1747,0.1793,-9.7722,-0.005339,-0.003049,-0.003001,28.7374,0.0360,138,0,0,0.000516,0.000624,-0.036173,-0.000325,0.002237,0.007255,-1.0646,-1.0005,0.0786
11929,11.0,0.000332,0.000375,-0.036922,0.000888,0.000720,-0.004848,-1.1131,-1.0315,0.0046,0.00002508,0.00001842,-0.00190799,-0.00170873,0.00144641,0.02469756,-0.1704,0.1942,-9.7541,-0.003358,-0.004439,-0.001439,28.7374,0.0370,138,0,0,0.000524,0.000631,-0.036097,-0.000292,0.002318,0.007996,-1.0650,-1.0005,0.0777
11940,11.0,0.000342,0.000383,-0.036977,0.000899,0.000675,-0.004372,-1.1148,-1.0355,0.0056,0.00002511,0.00001834,-0.00190799,-0.00170633,0.00144610,0.02473888,-0.1759,0.1872,-9.7335,-0.002559,-0.006509,-0.000402,28.7374,0.0370,138,0,0,0.000533,0.000639,-0.036586,-0.000256,0.002295,0.002244,-1.0666,-1.0007,0.0776
11951,11.0,0.000351,0.000390,-0.037023,0.000956,0.000785,-0.003922,-1.1185,-1.0375,0.0046,0.00002836,0.00001646,-0.00190796,-0.00173755,0.00138175,0.02473822,-0.1709,0.2042,-9.7408,-0.003113,-0.004725,-0.001999,28.7374,0.0370,136,0,0,0.000550,0.000654,-0.036527,-0.000224,0.002163,0.004214,-1.0663,-1.0031,0.0795
11962,11.0,0.000360,0.000397,-0.035923,0.001040,0.000878,0.009987,-1.1204,-1.0405,0.0028,0.00002925,0.00001559,-0.00190801,-0.00189373,0.00158527,0.01499766,-0.1660,0.2055,-9.7443,-0.002330,-0.005315,-0.005509,28.7374,0.0350,138,0,0,0.000558,0.000661,-0.036489,-0.000151,0.002235,0.004932,-1.0669,-1.0041,0.0794
11973,11.0,0.000370,0.000406,-0.035810,0.001121,0.000822,0.010601,-1.1221,-1.0395,0.0025,0.00002881,0.00001089,-0.00190803,-0.00194959,0.00160919,0.01499906,-0.1638,0.1888,-9.7361,-0.002931,-0.002210,-0.001754,28.7612,0.0350,137,0,0,0.000574,0.000676,-0.035409,0.000077,0.002336,0.016422,-1.0698,-1.0037,0.0792
11984,11.0,0.000379,0.000414,-0.035706,0.001029,0.000862,0.010891,-1.1233,-1.0399,0.0030,0.00002920,0.00000998,-0.00190806,-0.00193153,0.00161341,0.01513167,-0.1827,0.1985,-9.7478,-0.001662,-0.001266,-0.001477,28.7612,0.0350,135,0,0,0.000582,0.000684,-0.035256,0.000081,0.002345,0.017114,-1.0714,-1.0041,0.0790
11995,11.0,0.000389,0.000423,-0.035255,0.001102,0.000828,0.015233,-1.1251,-1.0398,0.0035,0.00002965,0.00000552,-0.00190807,-0.00202923,0.00167522,0.01241231,-0.1653,0.1925,-9.7499,-0.002536,-0.003148,-0.000462,28.7612,0.0350,144,0,0,0.000590,0.000691,-0.035081,0.000041,0.002459,0.017923,-1.0701,-1.0045,0.0060
12006,11.0,0.000399,0.000431,-0.035098,0.001024,0.000736,0.015433,-1.1282,-1.0425,0.0024,0.00002976,0.00000492,-0.00190809,-0.00201772,0.00167502,0.01251366,-0.1836,0.1858,-9.7627,-0.004742,-0.004645,-0.003969,28.7612,0.0370,140,0,0,0.000607,0.000707,-0.036204,0.000079,0.002455,0.003535,-1.0726,-1.0031,0.0068
12017,11.0,0.000409,0.000439,-0.034924,0.001007,0.000717,0.016177,-1.1295,-1.0445,0.0017,0.00002897,0.00000403,-0.00190811,-0.00201397,0.00168616,0.01251378,-0.1778,0.1909,-9.7265,-0.002587,-0.003655,-0.003376,28.7612,0.0370,134,0,0,0.000615,0.000715,-0.036166,0.000070,0.002434,0.004198,-1.0745,-1.0045,0.0061
12028,11.0,0.000419,0.000447,-0.035986,0.001028,0.000784,0.002086,-1.1319,-1.0466,0.0018,0.00002919,0.00000322,-0.00190814,-0.00182524,0.00149301,0.02254578,-0.1745,0.2011,-9.7386,-0.003577,-0.003753,-0.002110,28.7612,0.0370,140,0,0,0.000624,0.000722,-0.036136,0.000030,0.002492,0.004916,-1.0746,-1.0053,0.0057
12039,11.0,0.000429,0.000456,-0.035962,0.001163,0.000745,0.002396,-1.1330,-1.0449,0.0010,0.00002789,-0.00000357,-0.00190813,-0.00190681,0.00151255,0.02254752,-0.1598,0.1899,-9.7562,-0.002665,-0.001560,-0.002052,28.7612,0.0360,142,0,0,0.000641,0.000738,-0.036011,0.000099,0.002489,0.006588,-1.0763,-1.0072,0.0058
12050,11.0,0.000438,0.000464,-0.035948,0.001230,0.000629,0.002742,-1.1353,-1.0459,-0.0010,0.00002726,-0.00000544,-0.00190817,-0.00187772,0.00150092,0.02267170,-0.1654,0.1811,-9.7360,-0.004002,-0.002546,-0.005506,28.7612,0.0360,139,0,0,0.000649,0.000746,-0.035941,0.000202,0.002470,0.007317,-1.0773,-1.0048,0.0056
12061,11.0,0.000449,0.000472,-0.035955,0.001050,0.000616,0.002504,-1.1375,-1.0497,0.0002,0.00002600,-0.00000244,-0.00190823,-0.00178345,0.00150273,0.02297491,-0.1936,0.1920,-9.7637,-0.004175,-0.004172,-0.001725,28.7612,0.0360,139,0,0,0.000657,0.000753,-0.035864,0.000254,0.002570,0.008111,-1.0773,-1.0049,0.0047
12072,11.0,0.000459,0.000480,-0.035938,0.001092,0.000556,0.002650,-1.1400,-1.0514,0.0003,0.00002497,-0.00000351,-0.00190823,-0.00176727,0.00148675,0.02306881,-0.1726,0.1858,-9.7576,-0.004426,-0.003310,-0.001830,28.7612,0.0370,136,0,0,0.000674,0.000769,-0.035711,0.000213,0.002411,0.009261,-1.0800,-1.0071,0.0054
12083,11.0,0.000469,0.000489,-0.035908,0.001144,0.000480,0.002701,-1.1396,-1.0508,0.0005,0.00001904,-0.00000787,-0.00190824,-0.00180156,0.00153902,0.02307031,-0.1701,0.1811,-9.7792,-0.002424,-0.001404,-0.001751,28.7612,0.0370,139,0,0,0.000683,0.000777,-0.036520,0.000229,0.002335,0.000321,-1.0805,-1.0069,0.0056
12094,11.0,0.000479,0.000497,-0.036495,0.001013,0.000406,-0.004148,-1.1411,-1.0528,0.0017,0.00001707,-0.00000869,-0.00190821,-0.00170725,0.00142094,0.02783334,-0.1899,0.1812,-9.7418,-0.003211,-0.003539,0.000131,28.7612,0.0370,142,0,0,0.000700,0.000794,-0.036503,0.000270,0.002198,0.001410,-1.0798,-1.0063,-0.0324
12105,11.0,0.000489,0.000505,-0.036538,0.001096,0.000425,-0.003645,-1.1443,-1.0530,0.0017,0.00001353,-0.00001363,-0.00190818,-0.00175880,0.00143090,0.02783435,-0.1680,0.1901,-9.7332,-0.006756,-0.002844,-0.001122,28.7612,0.0360,136,0,0,0.000709,0.000802,-0.036506,0.000129,0.002122,0.001927,-1.0800,-1.0064,-0.0318
12116,11.0,0.000499,0.000512,-0.036598,0.001177,0.000406,-0.003378,-1.1454,-1.0546,0.0045,0.00001162,-0.00001551,-0.00190818,-0.00173261,0.00140408,0.02801261,-0.1664,0.1872,-9.7295,-0.002559,-0.003443,0.002439,28.7823,0.0360,143,0,0,0.000718,0.000810,-0.036180,0.000135,0.002101,0.005969,-1.0820,-1.0068,-0.0314
12127,11.0,0.000509,0.000520,-0.036278,0.001059,0.000483,0.001223,-1.1484,-1.0571,0.0047,0.00001069,-0.00001419,-0.00190819,-0.00172679,0.00143032,0.02533712,-0.1885,0.1981,-9.7407,-0.005054,-0.003176,-0.002168,28.7823,0.0360,138,0,0,0.000735,0.000825,-0.036064,0.000190,0.002092,0.007321,-1.0837,-1.0078,-0.0284
12138,11.0,0.000519,0.000527,-0.036280,0.001023,0.000604,0.001297,-1.1503,-1.0592,0.0058,0.00000998,-0.00001518,-0.00190820,-0.00171283,0.00141942,0.02547321,-0.1817,0.2058,-9.7546,-0.003231,-0.003814,-0.000350,28.7823,0.0360,133,0,0,0.000744,0.000832,-0.035988,0.000081,0.002157,0.007998,-1.0851,-1.0074,-0.0282
12150,12.0,0.000530,0.000535,-0.036261,0.000976,0.000399,0.002028,-1.1505,-1.0625,0.0081,0.00000020,-0.00001533,-0.00190825,-0.00169668,0.00153019,0.02547497,-0.1836,0.1725,-9.7205,-0.004253,-0.004867,-0.000477,28.7823,0.0360,138,0,0,0.000760,0.000848,-0.035888,0.000193,0.002208,0.008463,-1.0888,-1.0070,-0.0275
12161,11.0,0.000565,0.000543,-0.036112,0.001415,0.000439,0.003755,-1.1516,-1.0660,0.0059,-0.00000221,-0.00000053,-0.00190780,-0.00187597,0.00152205,0.02455906,-0.1969,0.1927,-9.7573,-0.002650,-0.000141,-0.002250,28.7823,0.0360,136,0,-1,0.000769,0.000856,-0.035823,0.000156,0.002143,0.009122,-1.0892,-1.0085,-0.0273
12172,11.0,0.000576,0.000551,-0.036068,0.001458,0.000568,0.004195,-1.1539,-1.0638,0.0050,-0.00000150,-0.00001014,-0.00190779,-0.00192602,0.00146884,0.02455880,-0.1650,0.2044,-9.7420,-0.003228,-0.000421,-0.001601,28.7823,0.0360,138,0,0,0.000806,0.000864,-0.035728,0.000052,0.002168,0.009770,-1.0894,-1.0075,-0.0277
12183,11.0,0.000586,0.000560,-0.036043,0.001374,0.000425,0.004260,-1.1544,-1.0653,0.0039,-0.00000356,-0.00001360,-0.00190782,-0.00188637,0.00144366,0.02473147,-0.1791,0.1782,-9.7508,-0.001485,-0.003433,-0.003933,28.7823,0.0360,136,0,0,0.000822,0.000880,-0.035777,0.000209,0.002175,0.008762,-1.0911,-1.0067,-0.0282
12194,11.0,0.000596,0.000567,-0.035990,0.001617,0.000507,0.004750,-1.1564,-1.0626,0.0026,-0.00000412,-0.00003242,-0.00190777,-0.00204873,0.00141493,0.02470445,-0.1419,0.2007,-9.7420,-0.003321,-0.003296,-0.000674,28.8404,0.0360,135,0,0,0.000830,0.000888,-0.035686,0.000213,0.002100,0.009455,-1.0905,-1.0071,-0.0366
12205,11.0,0.000581,0.000575,-0.035970,0.001093,0.000461,0.004595,-1.1580,-1.0598,0.0060,-0.00000614,-0.00005347,-0.00190828,-0.00183214,0.00138855,0.02495491,-0.1602,0.1879,-9.7583,-0.003183,-0.002429,0.000109,28.8404,0.0360,144,0,1,0.000838,0.000895,-0.035645,0.000432,0.002169,0.009563,-1.0918,-1.0078,-0.0361
12216,11.0,0.000591,0.000584,-0.035918,0.001050,0.000253,0.005012,-1.1567,-1.0617,0.0067,-0.00002027,-0.00005464,-0.00190834,-0.00181792,0.00151910,0.02495704,-0.1822,0.1674,-9.7441,-0.003271,-0.003354,-0.003196,28.8404,0.0360,136,0,0,0.000827,0.000912,-0.035735,0.000411,0.001736,0.008022,-1.0915,-1.0065,-0.0362
12227,11.0,0.000601,0.000591,-0.035956,0.001007,0.000184,0.004407,-1.1572,-1.0637,0.0065,-0.00002411,-0.00005575,-0.00190828,-0.00179489,0.00146884,0.02563438,-0.1830,0.1799,-9.7341,-0.002030,-0.003571,-0.001898,28.8404,0.0360,135,0,0,0.000835,0.000920,-0.035697,0.000386,0.001652,0.008218,-1.0909,-1.0068,-0.0370
12238,11.0,0.000610,0.000598,-0.035905,0.001090,0.000198,0.004802,-1.1578,-1.0653,0.0070,-0.00003118,-0.00006194,-0.00190823,-0.00184622,0.00148825,0.02563553,-0.1698,0.1884,-9.7453,-0.003328,-0.004871,-0.000570,28.8404,0.0360,135,0,0,0.000845,0.000928,-0.035611,0.000209,0.001621,0.008919,-1.0914,-1.0065,-0.0379
12249,11.0,0.000620,0.000605,-0.035895,0.001149,0.000069,0.004570,-1.1593,-1.0680,0.0076,-0.00003565,-0.00006402,-0.00190817,-0.00182107,0.00144054,0.02595705,-0.1719,0.1733,-9.7530,-0.003580,-0.004968,-0.000648,28.8404,0.0360,136,0,0,0.000861,0.000942,-0.035764,0.000363,0.001704,0.006730,-1.0914,-1.0077,-0.0371
12260,11.0,0.000629,0.000613,-0.035922,0.001224,0.000041,0.004070,-1.1583,-1.0678,0.0077,-0.00004797,-0.00007225,-0.00190813,-0.00186522,0.00148281,0.02650534,-0.1680,0.1794,-9.7422,-0.002546,-0.002497,-0.001741,28.8061,0.0360,136,0,0,0.000869,0.000949,-0.035694,0.000380,0.001625,0.007312,-1.0915,-1.0083,-0.0367
12271,11.0,0.000639,0.000619,-0.035900,0.001242,0.000094,0.004050,-1.1585,-1.0699,0.0074,-0.00005258,-0.00007518,-0.00190809,-0.00183577,0.00143817,0.02667881,-0.1736,0.1900,-9.7548,-0.001540,-0.004209,-0.002149,28.8061,0.0360,137,0,0,0.000886,0.000965,-0.035825,0.000480,0.001336,0.005405,-1.0901,-1.0084,-0.0358
12282,11.0,0.000649,0.000627,-0.035853,0.001167,0.000158,0.004523,-1.1578,-1.0708,0.0077,-0.00006025,-0.00007747,-0.00190807,-0.00181272,0.00143909,0.02667827,-0.1837,0.1903,-9.7368,-0.001240,-0.001990,-0.001866,28.8061,0.0360,137,0,0,0.000895,0.000973,-0.035794,0.000467,0.001304,0.005659,-1.0899,-1.0088,-0.0358
12293,11.0,0.000659,0.000634,-0.035921,0.001152,0.000096,0.003672,-1.1579,-1.0737,0.0059,-0.00006482,-0.00007983,-0.00190802,-0.00177769,0.00138419,0.02750100,-0.1787,0.1795,-9.7280,-0.001532,-0.005211,-0.004527,28.8061,0.0360,140,0,0,0.000912,0.000987,-0.035667,0.000298,0.001431,0.007124,-1.0888,-1.0097,-0.1015
12304,11.0,0.000669,0.000641,-0.035878,0.001248,0.000178,0.004106,-1.1580,-1.0730,0.0049,-0.00007159,-0.00008969,-0.00190794,-0.00184301,0.00137568,0.02750182,-0.1663,0.1926,-9.7397,-0.002154,-0.002141,-0.002165,28.8061,0.0360,138,0,0,0.000920,0.000995,-0.035850,0.000268,0.001398,0.005051,-1.0887,-1.0108,-0.1023
12315,11.0,0.000678,0.000648,-0.035862,0.001407,0.000281,0.004263,-1.1602,-1.0731,0.0045,-0.00007552,-0.00009389,-0.00190796,-0.00180399,0.00133864,0.02772182,-0.1581,0.1967,-9.7298,-0.004523,-0.001312,-0.002785,28.8061,0.0360,141,0,0,0.000929,0.001002,-0.035796,0.000316,0.001447,0.005761,-1.0890,-1.0102,-0.1024
12326,11.0,0.000688,0.000655,-0.035908,0.001451,0.000336,0.003597,-1.1620,-1.0740,0.0033,-0.00007960,-0.00010542,-0.00190795,-0.00184428,0.00131974,0.02835785,-0.1667,0.1959,-9.7377,-0.003925,-0.004819,-0.002800,28.8061,0.0360,134,0,0,0.000945,0.001017,-0.035704,0.000506,0.001594,0.006528,-1.0903,-1.0089,-0.1029
12337,11.0,0.000699,0.000662,-0.035880,0.001399,0.000445,0.003971,-1.1621,-1.0753,0.0042,-0.00008202,-0.00010989,-0.00190802,-0.00180651,0.00129816,0.02845740,-0.1769,0.2024,-9.7278,-0.000806,-0.003207,-0.000897,28.7717,0.0360,137,0,0,0.000954,0.001024,-0.035847,0.000511,0.001617,0.004917,-1.0915,-1.0095,-0.1024
12348,11.0,0.000709,0.000669,-0.035834,0.001377,0.000434,0.004380,-1.1618,-1.0763,0.0050,-0.00008741,-0.00011811,-0.00190806,-0.00182217,0.00131799,0.02845792,-0.1747,0.1915,-9.7410,-0.001110,-0.003922,-0.000840,28.7717,0.0360,139,0,0,0.000962,0.001031,-0.035809,0.000474,0.001694,0.005510,-1.0907,-1.0094,-0.1019
12359,11.0,0.000720,0.000678,-0.035906,0.001237,0.000310,0.003176,-1.1626,-1.0765,0.0050,-0.00009144,-0.00012134,-0.00190805,-0.00178312,0.00127141,0.02925394,-0.1897,0.1776,-9.7576,-0.002185,-0.001245,-0.001832,28.7717,0.0360,138,0,0,0.000980,0.001047,-0.035708,0.000361,0.001493,0.006669,-1.0913,-1.0102,-0.1016
12370,11.0,0.000730,0.000686,-0.035869,0.001264,0.000285,0.003537,-1.1637,-1.0760,0.0052,-0.00010130,-0.00012896,-0.00190805,-0.00181253,0.00131107,0.02925506,-0.1738,0.1855,-9.7446,-0.004591,-0.001269,-0.001622,28.7717,0.0360,134,0,0,0.000988,0.001055,-0.035639,0.000276,0.001419,0.007156,-1.0906,-1.0112,-0.1014
12381,11.0,0.000740,0.000694,-0.035849,0.001187,0.000363,0.003450,-1.1640,-1.0770,0.0039,-0.00010471,-0.00013185,-0.00190804,-0.00178848,0.00128287,0.02938162,-0.1851,0.1982,-9.7639,-0.001282,-0.002354,-0.004060,28.7717,0.0360,134,0,0,0.000997,0.001062,-0.035839,0.000254,0.001484,0.004886,-1.0910,-1.0110,-0.1009
12392,11.0,0.000750,0.000702,-0.035906,0.001207,0.000308,0.002726,-1.1642,-1.0766,0.0031,-0.00011569,-0.00013860,-0.00190804,-0.00180151,0.00132325,0.03000784,-0.1755,0.1832,-9.7394,-0.003351,-0.001149,-0.003474,28.8510,0.0360,138,0,0,0.001014,0.001078,-0.035749,0.000205,0.001431,0.005693,-1.0905,-1.0116,-0.0976
12403,11.0,0.000760,0.000710,-0.035912,0.001138,0.000186,0.002479,-1.1660,-1.0782,0.0016,-0.00012043,-0.00014097,-0.00190798,-0.00177974,0.00128387,0.03025320,-0.1859,0.1768,-9.7580,-0.003981,-0.003145,-0.003984,28.8510,0.0360,145,0,0,0.001022,0.001086,-0.035755,0.000190,0.001388,0.005560,-1.0902,-1.0114,-0.0985
12414,11.0,0.000770,0.000717,-0.035882,0.001052,0.000243,0.002931,-1.1675,-1.0799,0.0017,-0.00012756,-0.00014064,-0.00190796,-0.00174513,0.00128442,0.03025249,-0.1894,0.1936,-9.7350,-0.004209,-0.002606,-0.002462,28.8510,0.0360,144,0,0,0.001040,0.001102,-0.035830,-0.000013,0.001146,0.004837,-1.0890,-1.0118,-0.0980
12425,11.0,0.000781,0.000724,-0.035952,0.000946,0.000223,0.002045,-1.1692,-1.0814,-0.0006,-0.00013227,-0.00014140,-0.00190786,-0.00172779,0.00123857,0.03090808,-0.1938,0.1867,-9.7456,-0.003875,-0.002538,-0.005029,28.8510,0.0360,138,0,0,0.001049,0.001109,-0.035827,-0.000086,0.001099,0.005003,-1.0897,-1.0118,-0.0977
12436,11.0,0.000790,0.000732,-0.035929,0.001086,0.000225,0.002180,-1.1692,-1.0817,-0.0022,-0.00014161,-0.00015102,-0.00190776,-0.00180135,0.00126264,0.03090971,-0.1680,0.1893,-9.7636,-0.002417,-0.003202,-0.003432,28.8510,0.0360,135,0,0,0.001057,0.001117,-0.035775,-0.000130,0.001052,0.005571,-1.0897,-1.0125,-0.0990
12447,11.0,0.000799,0.000738,-0.035952,0.001168,0.000324,0.001886,-1.1717,-1.0839,-0.0025,-0.00014508,-0.00015370,-0.00190775,-0.00177712,0.00123278,0.03122098,-0.1724,0.2013,-9.7489,-0.004741,-0.004096,-0.002428,28.8510,0.0360,139,0,0,0.001074,0.001132,-0.035869,-0.000053,0.001194,0.004414,-1.0914,-1.0133,-0.1006
12458,11.0,0.000809,0.000747,-0.035961,0.001237,0.000221,0.001583,-1.1710,-1.0837,-0.0030,-0.00015951,-0.00016332,-0.00190775,-0.00182063,0.00130415,0.03140917,-0.1718,0.1792,-9.7712,-0.002645,-0.002262,-0.003022,28.8510,0.0360,138,0,0,0.001082,0.001138,-0.035822,0.000005,0.001281,0.005041,-1.0925,-1.0140,-0.1008
12469,11.0,0.000819,0.000755,-0.035979,0.001215,0.000080,0.001527,-1.1723,-1.0829,-0.0029,-0.00016646,-0.00016658,-0.00190766,-0.00179424,0.00125313,0.03164508,-0.1808,0.1713,-9.7395,-0.003421,0.000525,-0.001383,28.8510,0.0360,138,0,0,0.001099,0.001153,-0.035875,-0.000073,0.001346,0.004442,-1.0920,-1.0136,-0.1024
12480,11.0,0.000829,0.000762,-0.035960,0.001269,0.000073,0.001976,-1.1714,-1.0848,-0.0030,-0.00017862,-0.00017701,-0.00190761,-0.00184125,0.00128927,0.03164642,-0.1714,0.1862,-9.7343,-0.001498,-0.005537,-0.001756,28.9646,0.0360,137,0,0,0.001108,0.001162,-0.035912,-0.000044,0.001268,0.004124,-1.0913,-1.0124,-0.1022
12491,11.0,0.000839,0.000769,-0.036017,0.001358,0.000209,0.001291,-1.1735,-1.0858,-0.0458,-0.00018383,-0.00018156,-0.00190030,-0.00177081,0.00127504,0.03213528,-0.1684,0.2010,-9.7513,-0.005136,-0.001883,-0.003398,28.9646,0.0360,137,0,0,0.001116,0.001169,-0.035867,0.000016,0.001268,0.004854,-1.0908,-1.0140,-0.1356
12502,11.0,0.000848,0.000778,-0.036002,0.001445,0.000053,0.001354,-1.1724,-1.0821,-0.0460,-0.00020675,-0.00019599,-0.00190030,-0.00183437,0.00139069,0.03213837,-0.1659,0.1680,-9.7694,-0.003854,0.002290,-0.002749,28.9646,0.0360,137,0,0,0.001132,0.001184,-0.035967,0.000097,0.001397,0.003490,-1.0939,-1.0130,-0.1347
12513,11.0,0.000859,0.000785,-0.036076,0.001427,0.000011,0.000667,-1.1741,-1.0834,-0.0460,-0.00021367,-0.00020136,-0.00190027,-0.00178989,0.00133591,0.03269950,-0.1755,0.1814,-9.7374,-0.004109,-0.003191,-0.001729,28.9646,0.0360,138,0,0,0.001141,0.001192,-0.035931,0.000159,0.001294,0.003851,-1.0934,-1.0108,-0.1347
12524,11.0,0.000869,0.000792,-0.036023,0.001427,0.000045,0.001328,-1.1746,-1.0843,-0.0451,-0.00022548,-0.00021225,-0.00190025,-0.00181993,0.00135871,0.03243149,-0.1739,0.1896,-9.7618,-0.003447,-0.003858,-0.000319,28.9646,0.0360,137,0,0,0.001149,0.001200,-0.035987,0.000180,0.001254,0.003330,-1.0936,-1.0110,-0.1345
12536,12.0,0.000880,0.000799,-0.036084,0.001522,0.000085,0.000561,-1.1747,-1.0863,-0.0464,-0.00023178,-0.00021895,-0.00190028,-0.00176977,0.00131048,0.03291070,-0.1652,0.1922,-9.7592,-0.001451,-0.004126,-0.004030,28.9884,0.0360,139,0,0,0.001165,0.001215,-0.035956,0.000351,0.001094,0.004072,-1.0942,-1.0110,-0.1341
12547,11.0,0.000891,0.000806,-0.036076,0.001457,0.000060,0.000895,-1.1733,-1.0874,-0.0468,-0.00024652,-0.00022852,-0.00190031,-0.00177006,0.00135609,0.03291136,-0.1788,0.1837,-9.7434,-0.001212,-0.003858,-0.003155,28.9884,0.0360,143,0,0,0.001174,0.001223,-0.035995,0.000400,0.001108,0.003659,-1.0941,-1.0114,-0.1353
12558,11.0,0.000901,0.000813,-0.036080,0.001481,0.000118,0.001005,-1.1749,-1.0882,-0.0470,-0.00025280,-0.00023464,-0.00190032,-0.00173130,0.00131618,0.03300093,-0.1714,0.1926,-9.7472,-0.003820,-0.002569,-0.002295,28.9884,0.0360,137,0,0,0.001190,0.001237,-0.036039,0.000439,0.001007,0.003181,-1.0918,-1.0130,-0.1353
12570,12.0,0.000913,0.000821,-0.036067,0.001397,0.000070,0.001198,-1.1741,-1.0884,-0.0462,-0.00026886,-0.00024176,-0.00190036,-0.00171501,0.00136481,0.03300136,-0.1831,0.1826,-9.7576,-0.002156,-0.001783,-0.001520,28.9884,0.0360,136,0,0,0.001199,0.001244,-0.035994,0.000510,0.001063,0.003943,-1.0924,-1.0125,-0.1359
12581,11.0,0.000924,0.000829,-0.036156,0.001248,0.000093,0.000062,-1.1739,-1.0886,-0.0465,-0.00027610,-0.00024595,-0.00190029,-0.00167936,0.00131058,0.03361079,-0.1922,0.1882,-9.7646,-0.001049,-0.001171,-0.002173,28.9884,0.0360,136,0,0,0.001216,0.001260,-0.036008,0.000462,0.001076,0.003727,-1.0925,-1.0118,-0.1356
12592,11.0,0.000934,0.000836,-0.036061,0.001223,0.000049,0.001241,-1.1736,-1.0897,-0.0473,-0.00029246,-0.00025195,-0.00190027,-0.00169197,0.00137573,0.03307406,-0.1818,0.1817,-9.7650,-0.003242,-0.003092,-0.003849,28.9884,0.0360,138,0,0,0.001224,0.001268,-0.035969,0.000427,0.001128,0.004101,-1.0921,-1.0125,-0.1954
12603,11.0,0.000943,0.000843,-0.036123,0.001359,0.000101,0.000663,-1.1756,-1.0909,0.0461,-0.00029872,-0.00025712,-0.00191847,-0.00173010,0.00126060,0.03352876,-0.1636,0.1932,-9.7418,-0.002869,-0.004594,-0.001309,28.9884,0.0360,141,0,0,0.001233,0.001275,-0.036085,0.000373,0.001094,0.002703,-1.0927,-1.0124,-0.1964
12614,11.0,0.000953,0.000851,-0.036115,0.001495,0.000050,0.000687,-1.1737,-1.0890,0.0453,-0.00031657,-0.00027674,-0.00191844,-0.00182104,0.00131960,0.03353127,-0.1604,0.1803,-9.7714,-0.000916,-0.001386,-0.002755,28.9303,0.0360,138,0,0,0.001250,0.001291,-0.035973,0.000299,0.000796,0.004176,-1.0927,-1.0134,-0.1963
12625,11.0,0.000963,0.000857,-0.036086,0.001507,0.000248,0.001351,-1.1755,-1.0912,0.0447,-0.00032114,-0.00028337,-0.00191850,-0.00178550,0.00129563,0.03341892,-0.1720,0.2094,-9.7332,-0.003928,-0.004779,-0.003028,28.9303,0.0360,136,0,0,0.001258,0.001299,-0.036014,0.000381,0.000750,0.003623,-1.0914,-1.0125,-0.1966
12636,11.0,0.000974,0.000865,-0.036069,0.001388,0.000226,0.001758,-1.1760,-1.0922,0.0451,-0.00033355,-0.00028883,-0.00191857,-0.00175536,0.00133348,0.03341893,-0.1870,0.1874,-9.7360,-0.003645,-0.002681,-0.002305,28.9303,0.0360,137,0,0,0.001267,0.001305,-0.035975,0.000329,0.000902,0.004152,-1.0925,-1.0131,-0.1969
12647,11.0,0.000984,0.000872,-0.036126,0.001430,0.000156,0.001161,-1.1756,-1.0951,0.0440,-0.00033908,-0.00029507,-0.00191859,-0.00171269,0.00129403,0.03386850,-0.1710,0.1839,-9.7423,-0.000475,-0.005746,-0.003794,28.9303,0.0360,142,0,0,0.001284,0.001321,-0.035976,0.000325,0.000780,0.004345,-1.0929,-1.0134,-0.1973
12659,12.0,0.000995,0.000880,-0.036041,0.001417,-0.000002,0.002260,-1.1749,-1.0946,0.0426,-0.00036254,-0.00030571,-0.00191862,-0.00173406,0.00140134,0.03348971,-0.1780,0.1714,-9.7480,-0.003810,-0.001346,-0.004963,28.9303,0.0360,141,0,0,0.001293,0.001327,-0.035930,0.000342,0.000770,0.004894,-1.0921,-1.0148,-0.1985
12670,11.0,0.001005,0.000888,-0.036072,0.001532,-0.000074,0.001680,-1.1757,-1.0944,0.0435,-0.00037188,-0.00031299,-0.00191859,-0.00168862,0.00134437,0.03381120,-0.1631,0.1762,-9.7645,-0.002883,-0.001144,-0.000373,28.9170,0.0360,145,0,0,0.001309,0.001343,-0.035939,0.000416,0.000605,0.004707,-1.0910,-1.0135,-0.1967
12681,11.0,0.001015,0.000895,-0.036053,0.001616,-0.000084,0.001887,-1.1759,-1.0943,0.0438,-0.00038987,-0.00033333,-0.00191856,-0.00176299,0.00138990,0.03381313,-0.1633,0.1828,-9.7545,-0.004122,-0.004176,-0.000975,28.9170,0.0360,140,0,0,0.001317,0.001352,-0.035958,0.000502,0.000453,0.004228,-1.0912,-1.0129,-0.1962
12692,11.0,0.001026,0.000903,-0.036049,0.001487,-0.000285,0.002058,-1.1746,-1.0970,0.0433,-0.00040034,-0.00034037,-0.00191848,-0.00172330,0.00133203,0.03391505,-0.1855,0.1618,-9.7375,0.000146,-0.005602,-0.002418,28.9170,0.0360,134,0,0,0.001335,0.001367,-0.035864,0.000521,0.000261,0.005352,-1.0914,-1.0130,-0.1594
12703,11.0,0.001036,0.000908,-0.036024,0.001415,-0.000138,0.002370,-1.1741,-1.0987,0.0448,-0.00041200,-0.00034938,-0.00191842,-0.00171769,0.00130800,0.03391426,-0.1826,0.1961,-9.7441,-0.001499,-0.004635,0.000663,28.9170,0.0360,134,0,0,0.001343,0.001374,-0.035972,0.000454,0.000203,0.004134,-1.0897,-1.0147,-0.1585
12713,10.0,0.001045,0.000915,-0.036071,0.001372,-0.000080,0.001683,-1.1759,-1.0991,0.1309,-0.00042073,-0.00035487,-0.00193748,-0.00175840,0.00118373,0.03431338,-0.1810,0.1885,-9.7552,-0.003335,-0.003626,-0.004180,28.9170,0.0360,140,0,0,0.001351,0.001382,-0.035928,0.000541,0.000170,0.004618,-1.0897,-1.0140,-0.1575
12724,11.0,0.001055,0.000922,-0.036016,0.001411,0.000006,0.002225,-1.1768,-1.0977,0.1296,-0.00043424,-0.00036817,-0.00193741,-0.00180082,0.00118893,0.03411907,-0.1736,0.1920,-9.7613,-0.004181,-0.000593,-0.003442,28.9170,0.0360,133,0,0,0.001368,0.001396,-0.035915,0.000519,0.000167,0.004557,-1.0899,-1.0142,-0.1585
12735,11.0,0.001066,0.000929,-0.036046,0.001482,0.000186,0.001721,-1.1785,-1.0983,0.1278,-0.00044082,-0.00037466,-0.00193742,-0.00176182,0.00114913,0.03442784,-0.1698,0.2054,-9.7569,-0.004073,-0.002100,-0.004948,28.9170,0.0370,132,0,0,0.001377,0.001404,-0.036549,0.000553,0.000204,-0.002479,-1.0902,-1.0123,-0.1592
12746,11.0,0.001077,0.000937,-0.036025,0.001333,0.000213,0.002148,-1.1804,-1.0979,0.1276,-0.00045396,-0.00037663,-0.00193745,-0.00171292,0.00117140,0.03442723,-0.1932,0.1901,-9.7331,-0.005885,0.000078,-0.003041,28.9170,0.0370,140,0,0,0.001386,0.001412,-0.036632,0.000548,0.000328,-0.002779,-1.0906,-1.0117,-0.1603
12757,11.0,0.001062,0.000945,-0.036579,0.000751,0.000188,-0.004365,-1.1821,-1.0963,0.1286,-0.00046103,-0.00040812,-0.00193804,-0.00149836,0.00107680,0.03752207,-0.1793,0.1873,-9.7464,-0.004108,-0.002140,-0.001914,28.9170,0.0370,142,0,1,0.001375,0.001427,-0.036770,0.000375,0.000291,-0.002807,-1.0925,-1.0126,-0.1603
12768,11.0,0.001070,0.000952,-0.036626,0.000932,0.000251,-0.004091,-1.1831,-1.0959,0.1295,-0.00046981,-0.00041827,-0.00193788,-0.00157893,0.00107610,0.03752339,-0.1699,0.1968,-9.7441,-0.003432,-0.002075,0.000479,28.9170,0.0360,136,0,0,0.001384,0.001434,-0.036312,0.000365,0.000335,0.003015,-1.0932,-1.0121,-0.1605
12779,11.0,0.001079,0.000960,-0.036743,0.001057,0.000357,-0.004861,-1.1834,-1.0971,0.1307,-0.00047436,-0.00042067,-0.00193784,-0.00155977,0.00104586,0.03791760,-0.1730,0.2040,-9.7594,-0.001617,-0.002662,0.000067,28.9170,0.0360,143,0,0,0.001392,0.001441,-0.036279,0.000382,0.000466,0.003563,-1.0933,-1.0115,-0.1593
12790,11.0,0.001088,0.000967,-0.036353,0.001289,0.000361,0.000562,-1.1844,-1.0972,0.1311,-0.00048151,-0.00044152,-0.00193777,-0.00172539,0.00110727,0.03559769,-0.1572,0.1958,-9.7459,-0.003287,-0.004744,-0.000022,28.9170,0.0360,135,0,0,0.001409,0.001456,-0.036281,0.000381,0.000577,0.003572,-1.0959,-1.0111,-0.1211
12801,11.0,0.001098,0.000975,-0.036402,0.001281,0.000313,-0.000053,-1.1833,-1.0985,0.1310,-0.00048677,-0.00044638,-0.00193777,-0.00169607,0.00107550,0.03589851,-0.1807,0.1890,-9.7655,0.000568,-0.003168,-0.002110,28.9170,0.0370,137,0,0,0.001418,0.001463,-0.036734,0.000450,0.000612,-0.001335,-1.0962,-1.0109,-0.1207
12813,12.0,0.001109,0.000984,-0.036401,0.001348,-0.000039,0.000314,-1.1798,-1.1000,0.1328,-0.00052004,-0.00046011,-0.00193784,-0.00174276,0.00125029,0.03590247,-0.1731,0.1563,-9.7409,-0.001268,-0.005000,-0.000750,28.9170,0.0370,135,0,0,0.001435,0.001479,-0.036753,0.000451,0.000667,-0.000454,-1.0963,-1.0095,-0.1215
12823,10.0,0.001118,0.000991,-0.036753,0.001266,-0.000016,-0.003527,-1.1813,-1.1006,0.2163,-0.00052893,-0.00046470,-0.00195774,-0.00176411,0.00110057,0.03774815,-0.1878,0.1866,-9.7373,-0.002935,-0.003884,0.000671,28.8827,0.0370,137,0,0,0.001444,0.001487,-0.036832,0.000488,0.000505,-0.000864,-1.0956,-1.0102,-0.1208
12835,12.0,0.001130,0.000997,-0.036794,0.001287,0.000016,-0.003291,-1.1825,-1.1024,0.2170,-0.00054299,-0.00047482,-0.00195768,-0.00178692,0.00111709,0.03774869,-0.1790,0.1910,-9.7491,-0.004335,-0.004700,-0.000923,28.8827,0.0360,137,0,0,0.001453,0.001494,-0.036330,0.000435,0.000504,0.005266,-1.0955,-1.0120,-0.1194
12846,11.0,0.001140,0.001004,-0.036890,0.001322,0.000140,-0.003814,-1.1829,-1.1025,0.2164,-0.00055061,-0.00048030,-0.00195764,-0.00175482,0.00107439,0.03806922,-0.1764,0.1997,-9.7494,-0.002254,-0.001293,-0.002732,28.8827,0.0360,137,0,0,0.001470,0.001508,-0.036267,0.000328,0.000397,0.005781,-1.0955,-1.0132,-0.1191
12857,11.0,0.001149,0.001012,-0.036961,0.001385,0.000137,-0.003858,-1.1817,-1.1029,0.2173,-0.00056534,-0.00049547,-0.00195761,-0.00180308,0.00110388,0.03822359,-0.1720,0.1883,-9.7408,-0.001142,-0.003864,-0.000345,28.8827,0.0370,138,0,0,0.001479,0.001516,-0.036207,0.000295,0.000451,0.006217,-1.0952,-1.0128,-0.1190
12868,11.0,0.001160,0.001020,-0.037049,0.001284,0.000097,-0.004379,-1.1847,-1.1041,0.2175,-0.00057298,-0.00049987,-0.00195754,-0.00177786,0.00106319,0.03846395,-0.1913,0.1850,-9.7650,-0.006274,-0.003051,-0.001453,28.8827,0.0370,138,0,0,0.001496,0.001531,-0.036676,0.000242,0.000466,0.001257,-1.0943,-1.0135,-0.1180
12879,11.0,0.001197,0.001026,-0.037097,0.001946,0.000287,-0.004285,-1.1863,-1.1070,0.2139,-0.00057405,-0.00048737,-0.00195677,-0.00196094,0.00100365,0.03846628,-0.1720,0.2108,-9.7593,-0.003098,-0.004058,-0.004703,28.8827,0.0370,134,0,-1,0.001505,0.001538,-0.036723,0.000180,0.000491,0.000760,-1.0961,-1.0146,-0.1181
12890,11.0,0.001208,0.001035,-0.037092,0.001880,0.000257,-0.003590,-1.1879,-1.1061,0.2128,-0.00058072,-0.00049884,-0.00195690,-0.00191219,0.00097732,0.03820733,-0.1753,0.1884,-9.7595,-0.004081,-0.000514,-0.004126,28.8827,0.0370,135,0,0,0.001543,0.001544,-0.036714,0.000286,0.000699,0.001106,-1.0968,-1.0153,-0.0804
12901,11.0,0.001219,0.001043,-0.037131,0.001878,0.000178,-0.003416,-1.1881,-1.1042,0.2131,-0.00059927,-0.00052241,-0.00195702,-0.00195819,0.00104280,0.03820914,-0.1677,0.1825,-9.7529,-0.004124,-0.001570,-0.001648,28.9408,0.0360,135,0,0,0.001552,0.001552,-0.036701,0.000325,0.000688,0.001498,-1.0972,-1.0148,-0.0810
12912,11.0,0.001230,0.001050,-0.037248,0.001862,0.000118,-0.004057,-1.1877,-1.1060,0.2149,-0.00060622,-0.00053439,-0.00195716,-0.00189556,0.00100249,0.03862296,-0.1691,0.1852,-9.7382,-0.000846,-0.004888,0.000594,28.9408,0.0360,142,0,0,0.001568,0.001567,-0.036227,0.000329,0.000586,0.006639,-1.0981,-1.0164,-0.0807
12923,11.0,0.001241,0.001058,-0.037124,0.001876,0.000151,-0.001847,-1.1884,-1.1043,0.2149,-0.00061995,-0.00055821,-0.00195722,-0.00196278,0.00103850,0.03779944,-0.1666,0.1920,-9.7441,-0.004080,-0.002024,-0.001585,28.9408,0.0370,138,0,0,0.001577,0.001574,-0.036246,0.000315,0.000566,0.006164,-1.0972,-1.0171,-0.0798
12934,11.0,0.001252,0.001066,-0.037205,0.001831,-0.000167,-0.002329,-1.1876,-1.1068,0.0939,-0.00063066,-0.00056950,-0.00192473,-0.00178707,0.00109299,0.03811454,-0.1740,0.1541,-9.7451,-0.002806,-0.003583,-0.003148,28.9408,0.0370,141,0,0,0.001594,0.001590,-0.036610,0.000501,0.000478,0.002367,-1.0994,-1.0159,-0.0809
12945,11.0,0.001263,0.001074,-0.037228,0.001848,-0.000150,-0.001886,-1.1868,-1.1051,0.0928,-0.00065281,-0.00059339,-0.00192474,-0.00184097,0.00113508,0.03811600,-0.1666,0.1833,-9.7285,-0.003151,-0.001935,-0.003414,28.9408,0.0370,135,0,0,0.001602,0.001598,-0.036661,0.000471,0.000321,0.001961,-1.0974,-1.0167,-0.0809
12956,11.0,0.001273,0.001080,-0.036612,0.001866,-0.000100,0.005515,-1.1864,-1.1065,0.0920,-0.00066190,-0.00060484,-0.00192481,-0.00184404,0.00115334,0.03500815,-0.1668,0.1907,-9.7715,-0.001196,-0.004323,-0.003486,28.9620,0.0360,142,0,0,0.001611,0.001606,-0.036638,0.000493,0.000272,0.002550,-1.0976,-1.0165,-0.0814
12967,11.0,0.001284,0.001086,-0.036549,0.001820,0.000173,0.005862,-1.1866,-1.1071,0.0906,-0.00066052,-0.00062615,-0.00192481,-0.00187190,0.00106157,0.03500665,-0.1722,0.2170,-9.7395,-0.000302,-0.004905,-0.002997,28.9620,0.0360,137,0,0,0.001628,0.001621,-0.036239,0.000527,0.000288,0.006666,-1.0963,-1.0155,-0.0829
12980,13.0,0.001299,0.001093,-0.036565,0.001695,0.000058,0.005017,-1.1884,-1.1100,0.0917,-0.00066815,-0.00063644,-0.00192490,-0.00181801,0.00101859,0.03546726,-0.1844,0.1829,-9.7507,-0.003893,-0.005655,-0.000715,28.9620,0.0360,137,0,0,0.001637,0.001627,-0.036169,0.000521,0.000421,0.007186,-1.0977,-1.0163,-0.0835
12991,11.0,0.001309,0.001100,-0.036217,0.001638,0.000307,0.008627,-1.1892,-1.1094,0.0899,-0.00066637,-0.00065248,-0.00192490,-0.00185520,0.00096208,0.03407837,-0.1780,0.2165,-9.7485,-0.001211,-0.002203,-0.003853,28.9620,0.0360,136,0,0,0.001654,0.001641,-0.036141,0.000532,0.000471,0.006913,-1.0982,-1.0184,-0.1541
13002,11.0,0.001320,0.001108,-0.036190,0.001598,0.000343,0.008194,-1.1913,-1.1090,0.0908,-0.00067206,-0.00066103,-0.00192499,-0.00181150,0.00093017,0.03441992,-0.1789,0.1965,-9.7357,-0.004763,-0.001213,-0.000588,28.9620,0.0370,138,0,0,0.001663,0.001648,-0.036725,0.000458,0.000729,0.000396,-1.0979,-1.0180,-0.1549
13013,11.0,0.001332,0.001116,-0.036099,0.001436,0.000255,0.008300,-1.1907,-1.1104,0.0905,-0.00068887,-0.00066571,-0.00192512,-0.00176605,0.00099129,0.03442011,-0.1938,0.1846,-9.7624,-0.002658,-0.003380,-0.003567,28.9620,0.0370,134,0,0,0.001681,0.001663,-0.036708,0.000267,0.000858,0.001236,-1.0991,-1.0173,-0.1557
13024,11.0,0.001341,0.001124,-0.035498,0.001536,0.000058,0.014654,-1.1904,-1.1114,0.0905,-0.00069650,-0.00067381,-0.00192515,-0.00177234,0.00100420,0.03203318,-0.1660,0.1710,-9.7288,-0.001146,-0.003211,-0.002119,28.9620,0.0350,137,0,0,0.001690,0.001671,-0.036815,0.000197,0.000838,0.000238,-1.0986,-1.0183,-0.1559
13035,11.0,0.001351,0.001131,-0.035334,0.001498,0.000145,0.015141,-1.1892,-1.1119,0.0899,-0.00070602,-0.00068846,-0.00192516,-0.00178891,0.00099643,0.03203313,-0.1789,0.1988,-9.7301,-0.000328,-0.003820,-0.002627,28.9276,0.0350,137,0,0,0.001698,0.001679,-0.035700,0.000255,0.000702,0.012636,-1.0981,-1.0184,-0.1560
13046,11.0,0.001361,0.001139,-0.035243,0.001431,-0.000019,0.014672,-1.1906,-1.1126,0.1242,-0.00071490,-0.00069562,-0.00193516,-0.00178569,0.00091845,0.03240415,-0.1840,0.1727,-9.7334,-0.003377,-0.003468,-0.000595,28.9276,0.0350,142,0,0,0.001714,0.001692,-0.035506,0.000235,0.000797,0.013092,-1.0987,-1.0198,-0.1560
13057,11.0,0.001372,0.001146,-0.036121,0.001461,-0.000101,0.002782,-1.1901,-1.1130,0.1232,-0.00074088,-0.00071160,-0.00193514,-0.00173268,0.00089857,0.03725915,-0.1760,0.1770,-9.7552,-0.004441,-0.003814,-0.003928,28.9276,0.0370,137,0,0,0.001723,0.001700,-0.035373,0.000209,0.000718,0.013636,-1.0978,-1.0207,-0.1543
13068,11.0,0.001382,0.001154,-0.036149,0.001490,-0.000188,0.002092,-1.1890,-1.1133,0.1225,-0.00075279,-0.00071921,-0.00193505,-0.00169466,0.00084186,0.03754041,-0.1756,0.1746,-9.7680,-0.000402,-0.002253,-0.002774,28.9276,0.0370,140,0,0,0.001731,0.001707,-0.036332,0.000206,0.000655,0.002121,-1.0990,-1.0212,-0.1554
13080,12.0,0.001393,0.001161,-0.036122,0.001634,-0.000199,0.002438,-1.1884,-1.1119,0.1228,-0.00077703,-0.00074371,-0.00193496,-0.00177859,0.00088956,0.03754254,-0.1632,0.1817,-9.7407,-0.003545,-0.002503,-0.001099,28.9276,0.0370,139,0,0,0.001749,0.001723,-0.036363,0.000219,0.000602,0.001691,-1.0964,-1.0189,-0.1551
13091,11.0,0.001403,0.001194,-0.035529,0.001681,0.000251,0.009091,-1.1837,-1.1130,0.1220,-0.00081635,-0.00075398,-0.00193433,-0.00178049,0.00077154,0.03494262,-0.1678,0.1712,-9.7612,0.001636,-0.003822,-0.001916,28.9276,0.0350,139,-1,0,0.001757,0.001731,-0.036344,0.000297,0.000558,0.002119,-1.0965,-1.0173,-0.1403
13102,11.0,0.001413,0.001227,-0.035427,0.001622,0.000702,0.009487,-1.1806,-1.1132,0.1214,-0.00086310,-0.00077037,-0.00193384,-0.00179342,0.00072837,0.03494147,-0.1786,0.1798,-9.7358,-0.002829,-0.003713,-0.002377,28.8563,0.0350,139,-1,0,0.001773,0.001800,-0.035452,0.000397,0.000589,0.011232,-1.0923,-1.0177,-0.1397
13113,11.0,0.001423,0.001235,-0.035371,0.001626,0.000455,0.009245,-1.1826,-1.1146,0.1201,-0.00086605,-0.00077988,-0.00193399,-0.00174887,0.00071129,0.03517913,-0.1740,0.1743,-9.7387,-0.004539,-0.004051,-0.004178,28.8563,0.0350,135,0,0,0.001782,0.001808,-0.035338,0.000321,0.000619,0.011602,-1.0929,-1.0173,-0.1418
13124,11.0,0.001434,0.001244,-0.036208,0.001733,0.000381,-0.001512,-1.1829,-1.1119,0.1192,-0.00088192,-0.00080670,-0.00193403,-0.00175125,0.00068142,0.03944220,-0.1625,0.1857,-9.7578,-0.004059,-0.000985,-0.002999,28.8563,0.0370,141,0,0,0.001799,0.001823,-0.035168,0.000285,0.000553,0.011869,-1.0936,-1.0169,-0.1436
13135,11.0,0.001444,0.001253,-0.036263,0.001732,0.000239,-0.001931,-1.1836,-1.1119,0.1197,-0.00088864,-0.00081705,-0.00193412,-0.00170455,0.00064976,0.03962120,-0.1732,0.1778,-9.7634,-0.002909,-0.002217,-0.001273,28.8563,0.0370,139,0,0,0.001807,0.001830,-0.036304,0.000397,0.000562,-0.001047,-1.0940,-1.0151,-0.1437
13146,11.0,0.001455,0.001260,-0.036284,0.001716,0.000196,-0.001912,-1.1827,-1.1118,0.1196,-0.00090443,-0.00083643,-0.00193420,-0.00173494,0.00069397,0.03962238,-0.1741,0.1863,-9.7654,-0.002049,-0.003821,-0.002092,28.8563,0.0370,139,0,0,0.001816,0.001838,-0.036356,0.000443,0.000530,-0.001290,-1.0944,-1.0149,-0.1432
13157,11.0,0.001467,0.001268,-0.036705,0.001572,0.000230,-0.006192,-1.1828,-1.1126,0.0970,-0.00091150,-0.00084529,-0.00192606,-0.00163944,0.00065653,0.04142343,-0.1890,0.1933,-9.7308,-0.002460,-0.002795,0.001504,28.8563,0.0370,141,0,0,0.001833,0.001853,-0.036446,0.000566,0.000649,-0.001486,-1.0945,-1.0133,-0.1423
13168,11.0,0.001477,0.001276,-0.036772,0.001441,0.000161,-0.006012,-1.1813,-1.1132,0.0971,-0.00092986,-0.00085260,-0.00192616,-0.00161080,0.00071424,0.04142384,-0.1904,0.1825,-9.7488,-0.001573,-0.002785,-0.002433,28.8563,0.0360,137,0,0,0.001842,0.001861,-0.036172,0.000506,0.000667,0.002122,-1.0950,-1.0137,-0.1413
13180,12.0,0.001490,0.001284,-0.036881,0.001274,0.000136,-0.006248,-1.1811,-1.1138,0.0976,-0.00093771,-0.00085791,-0.00192610,-0.00158555,0.00067856,0.04159674,-0.1969,0.1873,-9.7465,-0.001580,-0.002364,-0.001208,28.8219,0.0360,136,0,0,0.001851,0.001869,-0.036148,0.000381,0.000649,0.002532,-1.0949,-1.0135,-0.1413
13191,11.0,0.001499,0.001291,-0.036418,0.001271,0.000187,0.000104,-1.1812,-1.1151,0.0970,-0.00094750,-0.00086721,-0.00192606,-0.00164526,0.00072897,0.03925555,-0.1826,0.1951,-9.7466,-0.002564,-0.004328,-0.002733,28.8219,0.0360,140,0,0,0.001868,0.001883,-0.036132,0.000191,0.000708,0.002985,-1.0931,-1.0152,-0.1582
13202,11.0,0.001509,0.001299,-0.036444,0.001347,0.000023,0.000033,-1.1815,-1.1158,0.0961,-0.00095671,-0.00087293,-0.00192598,-0.00161909,0.00068861,0.03938583,-0.1747,0.1706,-9.7427,-0.002774,-0.002743,-0.003185,28.8219,0.0370,140,0,0,0.001877,0.001890,-0.036655,0.000204,0.000746,-0.002674,-1.0933,-1.0163,-0.1586
13213,11.0,0.001519,0.001306,-0.036443,0.001414,0.000018,0.000246,-1.1814,-1.1161,0.0958,-0.00097491,-0.00088912,-0.00192592,-0.00166952,0.00072745,0.03938729,-0.1737,0.1854,-9.7480,-0.003787,-0.004053,-0.002216,28.8219,0.0370,140,0,0,0.001894,0.001906,-0.036701,0.000202,0.000669,-0.001894,-1.0935,-1.0160,-0.1596
13224,11.0,0.001529,0.001313,-0.035666,0.001474,0.000013,0.009424,-1.1808,-1.1173,0.0960,-0.00098250,-0.00089647,-0.00192592,-0.00170079,0.00075785,0.03601635,-0.1722,0.1865,-9.7481,-0.000866,-0.003797,-0.001663,28.8219,0.0350,143,0,0,0.001902,0.001914,-0.036765,0.000257,0.000667,-0.002060,-1.0937,-1.0163,-0.1595
13235,11.0,0.001538,0.001321,-0.035561,0.001552,-0.000008,0.009671,-1.1797,-1.1164,0.0956,-0.00100180,-0.00091795,-0.00192589,-0.00176449,0.00080309,0.03601813,-0.1685,0.1835,-9.7484,-0.002492,-0.003061,-0.002225,28.8457,0.0350,143,0,0,0.001910,0.001921,-0.035713,0.000311,0.000675,0.010097,-1.0933,-1.0159,-0.1594
13246,11.0,0.001548,0.001327,-0.035500,0.001620,-0.000023,0.009422,-1.1796,-1.1177,0.0945,-0.00101059,-0.00092759,-0.00192592,-0.00172118,0.00076322,0.03622431,-0.1684,0.1847,-9.7428,-0.002091,-0.004175,-0.003713,28.8457,0.0350,140,0,0,0.001927,0.001935,-0.035545,0.000334,0.000625,0.010437,-1.0927,-1.0170,-0.1585
13257,11.0,0.001559,0.001334,-0.036263,0.001658,0.000060,-0.000508,-1.1797,-1.1170,0.0960,-0.00102446,-0.00094892,-0.00192588,-0.00169904,0.00069127,0.03996840,-0.1713,0.1940,-9.7564,-0.003161,-0.003391,0.000947,28.8457,0.0370,140,0,0,0.001935,0.001942,-0.035439,0.000375,0.000609,0.010832,-1.0928,-1.0178,-0.1582
13268,11.0,0.001570,0.001342,-0.036301,0.001618,0.000057,-0.000546,-1.1796,-1.1172,0.0725,-0.00103337,-0.00095793,-0.00191750,-0.00163335,0.00067607,0.04012465,-0.1795,0.1851,-9.7314,-0.002448,-0.002039,-0.002505,28.8457,0.0370,138,0,0,0.001953,0.001957,-0.036347,0.000300,0.000656,0.000263,-1.0951,-1.0186,-0.1576
13279,11.0,0.001581,0.001350,-0.036307,0.001486,-0.000155,-0.000517,-1.1768,-1.1184,0.0719,-0.00106659,-0.00096536,-0.00191763,-0.00160517,0.00080498,0.04012639,-0.1913,0.1617,-9.7642,-0.002549,-0.003762,-0.004151,28.8457,0.0370,136,0,0,0.001962,0.001965,-0.036389,0.000277,0.000656,0.000252,-1.0952,-1.0187,-0.1578
13290,11.0,0.001590,0.001357,-0.035617,0.001581,-0.000136,0.007684,-1.1769,-1.1182,0.0724,-0.00107667,-0.00097380,-0.00191760,-0.00162447,0.00081905,0.03715611,-0.1675,0.1839,-9.7571,-0.002370,-0.001721,-0.001000,28.8457,0.0350,146,0,0,0.001971,0.001973,-0.036385,0.000190,0.000487,0.000543,-1.0949,-1.0191,-0.1778
13301,11.0,0.001601,0.001364,-0.035530,0.001530,-0.000205,0.008057,-1.1759,-1.1183,0.0717,-0.00110306,-0.00098780,-0.00191763,-0.00163556,0.00089361,0.03715751,-0.1813,0.1739,-9.7358,-0.004093,-0.003437,-0.003467,28.8457,0.0350,146,0,0,0.001988,0.001987,-0.035483,0.000180,0.000374,0.010147,-1.0962,-1.0205,-0.1768
13312,11.0,0.001610,0.001371,-0.035464,0.001631,-0.000171,0.008257,-1.1762,-1.1185,0.0714,-0.00111405,-0.00099741,-0.00191760,-0.00159454,0.00084708,0.03726465,-0.1653,0.1840,-9.7244,-0.003052,-0.002484,-0.002382,28.7876,0.0350,135,0,0,0.001996,0.001995,-0.035379,0.000208,0.000342,0.010603,-1.0959,-1.0202,-0.1775
13323,11.0,0.001622,0.001377,-0.036251,0.001480,-0.000036,-0.001704,-1.1752,-1.1193,0.0725,-0.00112771,-0.00100501,-0.00191759,-0.00149035,0.00075919,0.04097166,-0.1927,0.1959,-9.7442,-0.001486,-0.003151,-0.000331,28.7876,0.0370,135,0,0,0.002003,0.002002,-0.035303,0.000320,0.000341,0.010797,-1.0956,-1.0200,-0.1776
13334,11.0,0.001631,0.001384,-0.036287,0.001683,0.000105,-0.001618,-1.1763,-1.1204,0.0723,-0.00113528,-0.00101459,-0.00191765,-0.00145022,0.00072702,0.04105251,-0.1564,0.2002,-9.7372,-0.003857,-0.004101,-0.002383,28.7876,0.0370,141,0,0,0.002021,0.002016,-0.036265,0.000190,0.000525,0.000014,-1.0955,-1.0201,-0.1775
13345,11.0,0.001642,0.001392,-0.036303,0.001671,0.000166,-0.001311,-1.1738,-1.1191,0.0726,-0.00114778,-0.00103375,-0.00191767,-0.00148256,0.00073313,0.04105299,-0.1749,0.1924,-9.7377,0.000985,-0.002046,-0.001250,28.7876,0.0370,136,0,0,0.002030,0.002024,-0.036288,0.000265,0.000589,0.000118,-1.0972,-1.0193,-0.1781
13356,11.0,0.001652,0.001398,-0.035062,0.001669,0.000316,0.013359,-1.1753,-1.1185,0.0721,-0.00115161,-0.00104275,-0.00191782,-0.00154013,0.00081442,0.03582342,-0.1742,0.2058,-9.7590,-0.004029,-0.001278,-0.002959,28.7876,0.0340,134,0,0,0.002038,0.002032,-0.036285,0.000268,0.000590,0.000541,-1.0960,-1.0188,-0.1782
13367,11.0,0.001662,0.001406,-0.034914,0.001690,0.000295,0.013532,-1.1745,-1.1164,0.0725,-0.00116359,-0.00106507,-0.00191791,-0.00158766,0.00084364,0.03582463,-0.1701,0.1892,-9.7552,-0.001882,-0.001495,-0.000988,28.7876,0.0340,142,0,0,0.002054,0.002046,-0.034771,0.000438,0.000603,0.015896,-1.0966,-1.0188,-0.1787
13378,11.0,0.001672,0.001414,-0.034810,0.001587,0.000217,0.013334,-1.1761,-1.1149,0.1655,-0.00117011,-0.00107433,-0.00195490,-0.00165545,0.00071307,0.03602197,-0.1837,0.1829,-9.7380,-0.002831,-0.001744,-0.002595,28.8457,0.0340,137,0,0,0.002062,0.002053,-0.034610,0.000481,0.000613,0.016247,-1.0965,-1.0179,-0.1789
13389,11.0,0.001683,0.001422,-0.035928,0.001647,0.000221,-0.001218,-1.1757,-1.1127,0.1658,-0.00118542,-0.00109677,-0.00195492,-0.00161356,0.00063684,0.04123222,-0.1689,0.1883,-9.7556,-0.003040,-0.001358,-0.001228,28.8457,0.0370,136,0,0,0.002070,0.002061,-0.034505,0.000455,0.000525,0.016037,-1.0965,-1.0175,-0.1797
13401,12.0,0.001695,0.001429,-0.035977,0.001631,0.000391,-0.001422,-1.1770,-1.1142,0.1667,-0.00118957,-0.00110589,-0.00195506,-0.00157444,0.00061711,0.04138521,-0.1775,0.2086,-9.7455,-0.003506,-0.004300,-0.000893,28.8457,0.0370,137,0,0,0.002087,0.002075,-0.035927,0.000542,0.000540,-0.000562,-1.0978,-1.0192,-0.1261
13412,11.0,0.001706,0.001437,-0.035991,0.001537,0.000379,-0.001113,-1.1764,-1.1143,0.1680,-0.00119992,-0.00111706,-0.00195519,-0.00156690,0.00064163,0.04138540,-0.1851,0.1912,-9.7369,-0.001997,-0.003075,-0.000165,28.8457,0.0370,137,0,0,0.002105,0.002089,-0.035983,0.000509,0.000682,-0.000266,-1.0990,-1.0193,-0.1268
13423,11.0,0.001716,0.001445,-0.035470,0.001591,0.000337,0.005426,-1.1770,-1.1153,0.1690,-0.00120398,-0.00112564,-0.00195532,-0.00157077,0.00066716,0.03923349,-0.1698,0.1892,-9.7301,-0.002616,-0.003836,-0.000558,28.8457,0.0350,137,0,0,0.002105,0.002089,-0.035983,0.000509,0.000682,-0.000266,-1.0990,-1.0198,-0.1263
13434,11.0,0.001726,0.001453,-0.035410,0.001646,0.000208,0.005554,-1.1761,-1.1142,0.1695,-0.00122311,-0.00114771,-0.00195543,-0.00162790,0.00074281,0.03923577,-0.1682,0.1777,-9.7561,-0.003122,-0.003083,-0.001348,28.8457,0.0350,141,0,0,0.002121,0.002104,-0.035354,0.000462,0.000667,0.006797,-1.0984,-1.0189,-0.1272
13445,11.0,0.001736,0.001460,-0.035395,0.001624,0.000156,0.005086,-1.1759,-1.1147,0.1710,-0.00122990,-0.00115728,-0.00195552,-0.00158635,0.00071178,0.03942822,-0.1764,0.1844,-9.7593,-0.001786,-0.003293,0.000287,28.8457,0.0350,135,0,0,0.002138,0.002119,-0.035264,0.000458,0.000618,0.006921,-1.0975,-1.0185,-0.1271
13456,11.0,0.001746,0.001468,-0.036239,0.001729,0.000090,-0.005466,-1.1750,-1.1131,0.1708,-0.00124992,-0.00118326,-0.00195555,-0.00159504,0.00069514,0.04303164,-0.1632,0.1803,-9.7799,-0.003223,-0.003048,-0.002159,28.8457,0.0370,140,0,0,0.002147,0.002127,-0.036262,0.000403,0.000624,-0.004459,-1.0980,-1.0189,-0.1269
13467,11.0,0.001757,0.001475,-0.036340,0.001654,0.000161,-0.005933,-1.1747,-1.1142,0.1698,-0.00125684,-0.00119259,-0.00195563,-0.00155499,0.00066417,0.04320173,-0.1814,0.1952,-9.7605,-0.001698,-0.004139,-0.003652,28.8668,0.0370,136,0,0,0.002155,0.002135,-0.036350,0.000494,0.000594,-0.004864,-1.0981,-1.0192,-0.1269
13478,11.0,0.001768,0.001483,-0.036404,0.001555,-0.000007,-0.005646,-1.1726,-1.1145,0.1697,-0.00128395,-0.00120338,-0.00195580,-0.00154575,0.00076723,0.04320335,-0.1857,0.1676,-9.7376,-0.002836,-0.003334,-0.003019,28.8668,0.0370,137,0,0,0.002172,0.002149,-0.036510,0.000555,0.000706,-0.004961,-1.0975,-1.0192,-0.1278
13489,11.0,0.001778,0.001490,-0.035691,0.001606,-0.000005,0.003548,-1.1745,-1.1156,0.1844,-0.00129160,-0.00121146,-0.00196274,-0.00158686,0.00077865,0.04013101,-0.1705,0.1860,-9.7447,-0.005078,-0.004272,-0.004078,28.8668,0.0350,139,0,0,0.002181,0.002129,-0.035622,0.000507,0.000525,0.005720,-1.0965,-1.0200,-0.1201
13501,12.0,0.001790,0.001498,-0.035648,0.001729,-0.000116,0.003580,-1.1740,-1.1121,0.1832,-0.00131795,-0.00123690,-0.00196274,-0.00166009,0.00085500,0.04013354,-0.1630,0.1725,-9.7644,-0.004762,-0.000194,-0.003696,28.8668,0.0350,139,0,0,0.002189,0.002136,-0.035563,0.000552,0.000484,0.006121,-1.0974,-1.0208,-0.1211
13513,12.0,0.001802,0.001505,-0.035649,0.001832,-0.000056,0.003038,-1.1738,-1.1115,0.1833,-0.00132841,-0.00124851,-0.00196279,-0.00161105,0.00081014,0.04030693,-0.1634,0.1887,-9.7689,-0.002324,-0.001790,-0.001839,28.8325,0.0370,136,0,0,0.002204,0.002151,-0.035497,0.000818,0.000371,0.005944,-1.0973,-1.0195,-0.1222
13524,11.0,0.001813,0.001513,-0.036376,0.001780,-0.000026,-0.005470,-1.1725,-1.1105,0.1831,-0.00134707,-0.00126836,-0.00196285,-0.00157714,0.00077871,0.04327386,-0.1749,0.1851,-9.7414,-0.002386,-0.002892,-0.002323,28.8325,0.0370,142,0,0,0.002222,0.002166,-0.036430,0.000835,0.000413,-0.004080,-1.0959,-1.0206,-0.1211
13535,11.0,0.001824,0.001520,-0.036467,0.001673,-0.000061,-0.005666,-1.1728,-1.1120,0.1830,-0.00135631,-0.00127776,-0.00196286,-0.00153762,0.00073963,0.04340148,-0.1833,0.1805,-9.7464,-0.003084,-0.004898,-0.002130,28.8325,0.0370,138,0,0,0.002231,0.002173,-0.036469,0.000835,0.000367,-0.003696,-1.0957,-1.0206,-0.1212
13546,11.0,0.001835,0.001527,-0.036529,0.001571,0.000062,-0.005581,-1.1710,-1.1131,0.1857,-0.00136588,-0.00128934,-0.00196286,-0.00152882,0.00072155,0.04340081,-0.1847,0.1973,-9.7552,0.000216,-0.004821,0.002429,28.8325,0.0370,132,0,0,0.002240,0.002181,-0.036557,0.000758,0.000293,-0.003980,-1.0957,-1.0204,-0.1211
13557,11.0,0.001844,0.001534,-0.035736,0.001651,0.000060,0.004360,-1.1721,-1.1137,0.1849,-0.00137275,-0.00129790,-0.00196292,-0.00155227,0.00075592,0.04010409,-0.1667,0.1863,-9.7567,-0.004010,-0.003367,-0.003433,28.8325,0.0350,138,0,0,0.002249,0.002188,-0.036595,0.000721,0.000334,-0.003658,-1.0956,-1.0214,-0.1196
13568,11.0,0.001854,0.001541,-0.035686,0.001727,0.000075,0.004655,-1.1713,-1.1117,0.1841,-0.00138783,-0.00132258,-0.00196290,-0.00162140,0.00078244,0.04010564,-0.1637,0.1868,-9.7400,-0.002743,-0.002543,-0.002741,28.8325,0.0350,139,0,0,0.002265,0.002202,-0.035521,0.000746,0.000354,0.007853,-1.0966,-1.0226,-0.1197
13579,11.0,0.001864,0.001548,-0.035676,0.001784,0.000010,0.004262,-1.1698,-1.1122,0.1854,-0.00139614,-0.00133391,-0.00196300,-0.00157367,0.00074630,0.04026849,-0.1650,0.1793,-9.7575,-0.000029,-0.003648,-0.000087,28.8325,0.0350,137,0,0,0.002273,0.002210,-0.035441,0.000805,0.000361,0.008254,-1.0964,-1.0226,-0.1203
13590,11.0,0.001875,0.001555,-0.036368,0.001689,0.000002,-0.004170,-1.1668,-1.1130,0.1857,-0.00141401,-0.00134927,-0.00196311,-0.00152166,0.00072596,0.04310197,-0.1814,0.1832,-9.7534,0.000275,-0.005060,-0.001886,28.8325,0.0370,141,0,0,0.002291,0.002225,-0.036338,0.000800,0.000223,-0.002412,-1.0968,-1.0221,-0.0876
13601,11.0,0.001885,0.001563,-0.036451,0.001889,-0.000056,-0.004331,-1.1664,-1.1128,0.2374,-0.00142364,-0.00136099,-0.00198772,-0.00153723,0.00062478,0.04325183,-0.1505,0.1765,-9.7370,-0.000984,-0.003599,-0.003090,28.8563,0.0370,138,0,0,0.002299,0.002232,-0.036401,0.000780,0.000222,-0.002556,-1.0951,-1.0232,-0.0874
13612,11.0,0.001896,0.001570,-0.036497,0.001831,-0.000061,-0.004168,-1.1650,-1.1116,0.2366,-0.00144361,-0.00137993,-0.00198780,-0.00155626,0.00066631,0.04325275,-0.1752,0.1800,-9.7488,-0.002738,-0.002618,-0.003521,28.8563,0.0370,137,0,0,0.002307,0.002240,-0.036425,0.000962,0.000142,-0.002134,-1.0943,-1.0237,-0.0880
13623,11.0,0.001907,0.001577,-0.036269,0.001735,0.000065,-0.000834,-1.1647,-1.1116,0.2368,-0.00145134,-0.00138978,-0.00198787,-0.00153491,0.00065472,0.04221303,-0.1805,0.1958,-9.7489,-0.001960,-0.002704,-0.001674,28.8563,0.0360,137,0,0,0.002324,0.002257,-0.036210,0.001004,-0.000120,0.001380,-1.0925,-1.0223,-0.0893
13634,11.0,0.001917,0.001585,-0.036277,0.001740,0.000103,-0.000592,-1.1643,-1.1088,0.2371,-0.00146618,-0.00140995,-0.00198788,-0.00157365,0.00067467,0.04221391,-0.1706,0.1866,-9.7426,-0.003289,-0.000488,-0.001249,28.8563,0.0360,143,0,0,0.002333,0.002264,-0.036195,0.000978,-0.000110,0.001726,-1.0923,-1.0223,-0.0890
13645,11.0,0.001928,0.001592,-0.036332,0.001707,0.000236,-0.001020,-1.1660,-1.1079,0.2375,-0.00147255,-0.00141952,-0.00198799,-0.00153235,0.00064563,0.04240651,-0.1755,0.1994,-9.7488,-0.005118,-0.001188,-0.001595,28.8563,0.0360,137,0,0,0.002350,0.002279,-0.036208,0.000992,0.000021,0.001999,-1.0944,-1.0212,-0.0902
13656,11.0,0.001939,0.001600,-0.036693,0.001769,0.000231,-0.005015,-1.1654,-1.1066,0.2368,-0.00148512,-0.00144295,-0.00198801,-0.00156915,0.00064565,0.04372135,-0.1647,0.1875,-9.7583,-0.002724,-0.003582,-0.002759,28.8774,0.0370,137,0,0,0.002359,0.002287,-0.036664,0.001012,-0.000099,-0.002914,-1.0942,-1.0214,-0.0894
13667,11.0,0.001950,0.001608,-0.036791,0.001651,0.000289,-0.005264,-1.1656,-1.1051,0.2364,-0.00149149,-0.00145177,-0.00198810,-0.00153120,0.00061698,0.04389135,-0.1840,0.1925,-9.7370,-0.002660,-0.000271,-0.002762,28.8774,0.0370,135,0,0,0.002367,0.002294,-0.036738,0.001060,-0.000077,-0.003200,-1.0943,-1.0215,-0.0900
13678,11.0,0.001961,0.001616,-0.036846,0.001600,0.000226,-0.004900,-1.1651,-1.1044,0.2366,-0.00150739,-0.00146541,-0.00198822,-0.00154293,0.00066783,0.04389239,-0.1784,0.1808,-9.7298,-0.003610,-0.002634,-0.001922,28.8774,0.0370,137,0,0,0.002385,0.002309,-0.036868,0.000983,-0.000020,-0.003250,-1.0950,-1.0215,-0.0907
13689,11.0,0.001971,0.001623,-0.036436,0.001626,0.000265,0.000639,-1.1644,-1.1069,0.2365,-0.00151149,-0.00147375,-0.00198835,-0.00153924,0.00068379,0.04217018,-0.1706,0.1946,-9.7483,-0.000950,-0.006609,-0.002342,28.8774,0.0360,137,0,0,0.002394,0.002318,-0.036899,0.000955,-0.000174,-0.002869,-1.0949,-1.0202,-0.0588
13700,11.0,0.001981,0.001630,-0.036428,0.001679,0.000304,0.000883,-1.1641,-1.1056,0.2367,-0.00151977,-0.00149480,-0.00198834,-0.00159448,0.00068994,0.04217114,-0.1665,0.1929,-9.7424,-0.002478,-0.003134,-0.001354,28.8774,0.0360,137,0,0,0.002403,0.002324,-0.036319,0.000941,-0.000165,0.003850,-1.0945,-1.0212,-0.0580
13711,11.0,0.001992,0.001639,-0.036474,0.001561,0.000279,0.000426,-1.1654,-1.1040,0.2129,-0.00152594,-0.00150267,-0.00197566,-0.00152742,0.00069060,0.04238906,-0.1860,0.1849,-9.7431,-0.004813,0.000441,0.000185,28.8774,0.0360,136,0,0,0.002419,0.002339,-0.036290,0.001043,-0.000215,0.003960,-1.0916,-1.0209,-0.0556
13722,11.0,0.002003,0.001647,-0.036750,0.001582,0.000128,-0.002686,-1.1635,-1.1033,0.2127,-0.00154760,-0.00151939,-0.00197578,-0.00154500,0.00075531,0.04342441,-0.1721,0.1710,-9.7509,-0.002649,-0.003362,-0.002545,28.8774,0.0370,136,0,0,0.002429,0.002347,-0.036327,0.000965,-0.000259,0.003464,-1.0922,-1.0203,-0.0550
13733,11.0,0.002013,0.001655,-0.036823,0.001692,0.000100,-0.003036,-1.1635,-1.1031,0.2123,-0.00155531,-0.00152849,-0.00197583,-0.00150568,0.00072122,0.04359049,-0.1620,0.1816,-9.7472,-0.002636,-0.002388,-0.002631,28.8774,0.0370,138,0,0,0.002446,0.002362,-0.036722,0.000990,-0.000286,-0.000555,-1.0906,-1.0195,-0.0555
13744,11.0,0.002024,0.001662,-0.036855,0.001686,0.000027,-0.002871,-1.1630,-1.1028,0.2120,-0.00157478,-0.00154568,-0.00197591,-0.00153683,0.00078123,0.04359203,-0.1723,0.1763,-9.7483,-0.004301,-0.004006,-0.002679,28.8774,0.0370,137,0,0,0.002455,0.002370,-0.036785,0.001033,-0.000289,-0.000840,-1.0905,-1.0186,-0.0553
13755,11.0,0.002034,0.001670,-0.036430,0.001735,0.000076,0.002594,-1.1627,-1.1017,0.2131,-0.00158249,-0.00155501,-0.00197598,-0.00152814,0.00078162,0.04193365,-0.1659,0.1879,-9.7473,-0.002092,-0.001144,-0.000179,28.8774,0.0360,143,0,0,0.002464,0.002377,-0.036791,0.001028,-0.000340,-0.000521,-1.0914,-1.0188,-0.0559
13766,11.0,0.002045,0.001677,-0.036400,0.001709,-0.000009,0.002802,-1.1629,-1.1021,0.2129,-0.00160206,-0.00157209,-0.00197609,-0.00155430,0.00084574,0.04193517,-0.1730,0.1754,-9.7462,-0.005488,-0.005156,-0.002687,28.8774,0.0360,144,0,0,0.002481,0.002392,-0.036302,0.000975,-0.000450,0.005107,-1.0913,-1.0185,-0.0567
13777,11.0,0.002056,0.001684,-0.036426,0.001698,-0.000051,0.002391,-1.1625,-1.1020,0.2125,-0.00161101,-0.00158144,-0.00197611,-0.00151300,0.00080569,0.04214807,-0.1720,0.1776,-9.7397,-0.002249,-0.002725,-0.002614,28.8774,0.0360,138,0,0,0.002490,0.002399,-0.036249,0.000999,-0.000521,0.005426,-1.0912,-1.0194,-0.0569
13789,12.0,0.002068,0.001692,-0.036720,0.001670,-0.000034,-0.001265,-1.1615,-1.1000,0.2123,-0.00162894,-0.00159695,-0.00197613,-0.00150756,0.00080935,0.04330826,-0.1756,0.1826,-9.7576,-0.003144,-0.001121,-0.002144,28.8774,0.0370,135,0,0,0.002498,0.002406,-0.036267,0.001011,-0.000600,0.004985,-1.0906,-1.0201,-0.0574
13800,11.0,0.002079,0.001699,-0.036784,0.001564,-0.000078,-0.001728,-1.1601,-1.1022,0.2118,-0.00163750,-0.00160475,-0.00197611,-0.00147289,0.00077147,0.04349396,-0.1834,0.1781,-9.7504,-0.000501,-0.006179,-0.002824,28.8986,0.0370,140,0,0,0.002516,0.002420,-0.036724,0.001076,-0.000433,-0.000054,-1.0894,-1.0203,-0.0753
13811,11.0,0.002089,0.001706,-0.036803,0.001658,0.000077,-0.001726,-1.1599,-1.0994,0.2108,-0.00164666,-0.00162576,-0.00197591,-0.00153770,0.00074690,0.04349449,-0.1632,0.1966,-9.7630,-0.002820,-0.001125,-0.002848,28.8986,0.0370,137,0,0,0.002525,0.002427,-0.036723,0.001037,-0.000447,0.000236,-1.0883,-1.0219,-0.0758
13822,11.0,0.002100,0.001714,-0.036404,0.001621,0.000103,0.003158,-1.1605,-1.0989,0.3081,-0.00165350,-0.00163352,-0.00202854,-0.00165691,0.00063059,0.04201205,-0.1754,0.1879,-9.7580,-0.001558,-0.003932,-0.000715,28.8986,0.0360,137,0,0,0.002533,0.002435,-0.036720,0.001121,-0.000349,0.000474,-1.0873,-1.0211,-0.0757
13833,11.0,0.002110,0.001721,-0.036368,0.001594,0.000082,0.003464,-1.1604,-1.0978,0.3077,-0.00166965,-0.00164780,-0.00202860,-0.00167649,0.00067094,0.04201303,-0.1750,0.1809,-9.7370,-0.004416,-0.002328,-0.002754,28.8986,0.0360,139,0,0,0.002550,0.002449,-0.036273,0.001001,-0.000319,0.005176,-1.0870,-1.0214,-0.0745
13844,11.0,0.002120,0.001729,-0.036393,0.001610,0.000135,0.003139,-1.1604,-1.0971,0.3082,-0.00167672,-0.00165601,-0.00202865,-0.00163912,0.00063790,0.04225013,-0.1705,0.1887,-9.7232,-0.002800,-0.001794,-0.001275,28.8986,0.0360,135,0,0,0.002568,0.002464,-0.036236,0.000967,-0.000349,0.005281,-1.0877,-1.0213,-0.0749
13855,11.0,0.002131,0.001737,-0.036155,0.001557,0.000069,0.005680,-1.1588,-1.0955,0.3078,-0.00169548,-0.00166809,-0.00202876,-0.00165972,0.00070866,0.04154018,-0.1780,0.1758,-9.7464,-0.002658,-0.001192,-0.002789,28.8986,0.0360,140,0,0,0.002577,0.002471,-0.036066,0.000967,-0.000286,0.007024,-1.0887,-1.0210,-0.0746
13866,11.0,0.002141,0.001744,-0.036141,0.001583,0.000171,0.005342,-1.1607,-1.0957,0.3065,-0.00170162,-0.00167570,-0.00202882,-0.00162565,0.00068032,0.04172195,-0.1706,0.1952,-9.7409,-0.005595,-0.003028,-0.004202,28.8986,0.0360,137,0,0,0.002585,0.002479,-0.036047,0.000942,-0.000374,0.006751,-1.0890,-1.0200,-0.0750
13877,11.0,0.002152,0.001750,-0.036080,0.001489,0.000193,0.005778,-1.1612,-1.0988,0.3067,-0.00170986,-0.00168490,-0.00202891,-0.00161910,0.00069256,0.04172197,-0.1829,0.1910,-9.7251,-0.003867,-0.008061,-0.002039,28.8642,0.0360,134,0,0,0.002602,0.002493,-0.035973,0.000985,-0.000317,0.006653,-1.0878,-1.0213,-0.0759
13888,11.0,0.002162,0.001757,-0.035487,0.001580,0.000107,0.012146,-1.1609,-1.0991,0.3054,-0.00171602,-0.00169243,-0.00202896,-0.00162051,0.00070142,0.03987743,-0.1644,0.1774,-9.7436,-0.002250,-0.003249,-0.004139,28.8642,0.0350,136,0,0,0.002611,0.002499,-0.035359,0.000867,-0.000303,0.013141,-1.0894,-1.0237,-0.0117
13899,11.0,0.002172,0.001765,-0.035353,0.001530,0.000082,0.012223,-1.1617,-1.0982,0.3060,-0.00173118,-0.00170409,-0.00202905,-0.00162794,0.00073988,0.03987816,-0.1787,0.1818,-9.7599,-0.005745,-0.002383,-0.001272,28.8642,0.0350,140,0,0,0.002619,0.002506,-0.035225,0.000929,-0.000364,0.013529,-1.0892,-1.0240,-0.0127
13910,11.0,0.002182,0.001772,-0.035270,0.001588,0.000088,0.011862,-1.1618,-1.0985,0.3055,-0.00173791,-0.00171209,-0.00202910,-0.00159194,0.00070878,0.04006677,-0.1671,0.1855,-9.7420,-0.002985,-0.003287,-0.002815,28.8642,0.0350,140,0,0,0.002636,0.002520,-0.035011,0.000946,-0.000301,0.013415,-1.0899,-1.0240,-0.0146
13921,11.0,0.002192,0.001779,-0.035599,0.001674,0.000072,0.006754,-1.1617,-1.0982,0.3059,-0.00175212,-0.00173314,-0.00202906,-0.00162715,0.00071208,0.04166101,-0.1625,0.1834,-9.7452,-0.004178,-0.005288,-0.001201,28.8642,0.0360,138,0,0,0.002644,0.002527,-0.035572,0.000945,-0.000256,0.006107,-1.0900,-1.0245,-0.0152
13932,11.0,0.002203,0.001785,-0.035564,0.001588,0.000115,0.006567,-1.1608,-1.0989,0.3137,-0.00175861,-0.00174096,-0.00203362,-0.00160278,0.00067326,0.04180509,-0.1803,0.1893,-9.7373,-0.001036,-0.004120,-0.001984,28.8642,0.0360,138,0,0,0.002653,0.002534,-0.035509,0.001009,-0.000237,0.006450,-1.0905,-1.0255,-0.0149
13943,11.0,0.002214,0.001792,-0.035491,0.001456,0.000063,0.006815,-1.1583,-1.1020,0.3152,-0.00177275,-0.00174796,-0.00203380,-0.00158128,0.00071575,0.04180541,-0.1875,0.1810,-9.7423,-0.000507,-0.007806,-0.000163,28.8642,0.0360,138,0,0,0.002670,0.002547,-0.035440,0.000953,-0.000025,0.006453,-1.0901,-1.0271,-0.0146
13954,11.0,0.002223,0.001798,-0.034669,0.001422,0.000182,0.015693,-1.1583,-1.1031,0.3148,-0.00177736,-0.00175376,-0.00203384,-0.00160178,0.00074409,0.03925687,-0.1792,0.1984,-9.7428,-0.002397,-0.004318,-0.002610,28.8642,0.0340,140,0,0,0.002679,0.002553,-0.035374,0.000901,-0.000006,0.006853,-1.0893,-1.0294,-0.0141
13965,11.0,0.002233,0.001805,-0.034495,0.001397,0.000202,0.015983,-1.1577,-1.1024,0.3134,-0.00178742,-0.00176457,-0.00203387,-0.00161539,0.00076011,0.03925731,-0.1787,0.1883,-9.7411,-0.002690,-0.002451,-0.004292,28.8642,0.0340,140,0,0,0.002695,0.002566,-0.034335,0.000823,0.000182,0.015728,-1.0894,-1.0313,-0.0158
13976,11.0,0.002243,0.001813,-0.034372,0.001390,0.000094,0.015403,-1.1581,-1.1030,0.3136,-0.00179362,-0.00177056,-0.00203386,-0.00158735,0.00073099,0.03944348,-0.1781,0.1757,-9.7622,-0.003413,-0.003631,-0.001736,28.8642,0.0340,139,0,0,0.002703,0.002573,-0.034176,0.000900,0.000124,0.016174,-1.0893,-1.0315,-0.0172
13986,10.0,0.002252,0.001820,-0.035169,0.001317,0.000021,0.004491,-1.1568,-1.1022,0.3122,-0.00181417,-0.00177692,-0.00203401,-0.00151776,0.00073589,0.04268133,-0.1864,0.1719,-9.7506,-0.003860,-0.001506,-0.004969,28.8642,0.0360,139,0,0,0.002711,0.002580,-0.035140,0.000907,0.000097,0.004119,-1.0891,-1.0314,-0.0180
13997,11.0,0.002263,0.001828,-0.035160,0.001148,-0.000103,0.003993,-1.1561,-1.1032,0.3142,-0.00182261,-0.00177996,-0.00203383,-0.00150246,0.00069843,0.04282240,-0.1992,0.1693,-9.7649,-0.001895,-0.003933,0.001303,28.8642,0.0360,145,0,0,0.002720,0.002588,-0.035098,0.000854,0.000016,0.004326,-1.0882,-1.0323,-0.1211
14009,12.0,0.002273,0.001835,-0.035113,0.001132,-0.000141,0.003888,-1.1565,-1.1026,0.3142,-0.00184139,-0.00178457,-0.00203381,-0.00150226,0.00074200,0.04282311,-0.1855,0.1769,-9.7726,-0.005754,-0.001610,-0.002230,28.8642,0.0340,140,0,0,0.002737,0.002604,-0.035065,0.000728,-0.000276,0.004122,-1.0879,-1.0345,-0.1203
14020,11.0,0.002283,0.001841,-0.034506,0.001137,-0.000055,0.010414,-1.1577,-1.1041,0.3137,-0.00184830,-0.00178746,-0.00203368,-0.00152473,0.00074832,0.04093129,-0.1828,0.1905,-9.7647,-0.004675,-0.004580,-0.002579,28.8510,0.0340,140,0,0,0.002746,0.002611,-0.034421,0.000712,-0.000334,0.010989,-1.0882,-1.0343,-0.1209
14031,11.0,0.002292,0.001847,-0.034389,0.001209,0.000115,0.010739,-1.1570,-1.1030,0.3137,-0.00185369,-0.00179860,-0.00203342,-0.00156510,0.00071521,0.04093128,-0.1736,0.2000,-9.7360,-0.001546,-0.002235,-0.001538,28.8510,0.0340,142,0,0,0.002762,0.002624,-0.034241,0.000723,-0.000238,0.011038,-1.0905,-1.0337,-0.1226
14042,11.0,0.002301,0.001854,-0.034319,0.001151,0.000194,0.010372,-1.1545,-1.1054,0.1772,-0.00185822,-0.00180273,-0.00194827,-0.00136201,0.00086292,0.04109812,-0.1878,0.1937,-9.7458,-0.001362,-0.003298,-0.003242,28.8510,0.0340,141,0,0,0.002770,0.002631,-0.034190,0.000724,-0.000099,0.010706,-1.0902,-1.0333,-0.1226
14053,11.0,0.002311,0.001861,-0.034631,0.001210,0.000167,0.005555,-1.1559,-1.1045,0.1771,-0.00187118,-0.00181201,-0.00194822,-0.00136675,0.00087016,0.04251214,-0.1768,0.1826,-9.7553,-0.006579,-0.002244,-0.001980,28.8510,0.0350,140,0,0,0.002787,0.002643,-0.034625,0.000628,0.000163,0.004423,-1.0906,-1.0352,-0.1203
14064,11.0,0.002320,0.001869,-0.034605,0.001218,0.000216,0.005463,-1.1565,-1.1037,0.1763,-0.00187678,-0.00181581,-0.00194817,-0.00134836,0.00084438,0.04263913,-0.1807,0.1901,-9.7317,-0.003695,-0.001107,-0.003141,28.8510,0.0350,135,0,0,0.002795,0.002650,-0.034622,0.000660,0.000199,0.004208,-1.0918,-1.0342,-0.1208
14077,13.0,0.002332,0.001876,-0.034532,0.001281,0.000191,0.005789,-1.1561,-1.1045,0.1771,-0.00188702,-0.00182641,-0.00194813,-0.00137931,0.00086667,0.04264001,-0.1759,0.1865,-9.7390,-0.002966,-0.004698,-0.000836,28.8166,0.0350,135,0,0,0.002804,0.002658,-0.034578,0.000671,0.000248,0.004670,-1.0921,-1.0332,-0.1213
14088,11.0,0.002341,0.001883,-0.033666,0.001380,0.000166,0.015513,-1.1568,-1.1054,0.1766,-0.00189147,-0.00183203,-0.00194817,-0.00140499,0.00089637,0.04003880,-0.1671,0.1843,-9.7136,-0.003782,-0.004084,-0.002798,28.8166,0.0330,140,0,0,0.002819,0.002671,-0.033595,0.000864,0.000249,0.014557,-1.0928,-1.0345,-0.2173
14099,11.0,0.002350,0.001890,-0.033495,0.001481,0.000268,0.015533,-1.1570,-1.1028,0.1762,-0.00189630,-0.00184972,-0.00194799,-0.00146590,0.00087897,0.04003944,-0.1649,0.1976,-9.7648,-0.002960,-0.001219,-0.001983,28.8166,0.0330,135,0,0,0.002826,0.002678,-0.033447,0.000943,0.000233,0.015102,-1.0929,-1.0336,-0.2180
14110,11.0,0.002359,0.001898,-0.033360,0.001383,0.000051,0.015355,-1.1559,-1.1026,0.1762,-0.00190282,-0.00185577,-0.00194798,-0.00143796,0.00084911,0.04016165,-0.1851,0.1641,-9.7434,-0.001111,-0.002417,-0.001987,28.8166,0.0330,138,0,0,0.002842,0.002692,-0.033182,0.001023,0.000163,0.015101,-1.0927,-1.0322,-0.2160
14121,11.0,0.002369,0.001905,-0.033626,0.001325,0.000063,0.010572,-1.1546,-1.1015,0.1768,-0.00191608,-0.00186348,-0.00194802,-0.00140939,0.00084621,0.04157238,-0.1833,0.1835,-9.7450,-0.002294,-0.001535,-0.001102,28.8166,0.0340,136,0,0,0.002850,0.002700,-0.033625,0.000956,0.000045,0.008975,-1.0928,-1.0324,-0.2162
14132,11.0,0.002379,0.001912,-0.033538,0.001356,0.000211,0.010224,-1.1563,-1.1011,0.1773,-0.00192108,-0.00186866,-0.00194804,-0.00138571,0.00082323,0.04166516,-0.1754,0.2006,-9.7661,-0.005505,-0.002045,-0.001117,28.8166,0.0340,134,0,0,0.002867,0.002714,-0.033439,0.000898,-0.000031,0.009619,-1.0937,-1.0320,-0.2164
14143,11.0,0.002388,0.001919,-0.033425,0.001394,0.000223,0.010191,-1.1572,-1.1011,0.1766,-0.00192908,-0.00188097,-0.00194800,-0.00141976,0.00083659,0.04166593,-0.1732,0.1897,-9.7680,-0.004845,-0.004314,-0.002886,28.8166,0.0340,136,0,0,0.002875,0.002721,-0.033388,0.000913,-0.000011,0.009343,-1.0942,-1.0322,-0.2162
14154,11.0,0.002398,0.001926,-0.033169,0.001438,0.000216,0.012109,-1.1575,-1.1011,0.1640,-0.00193356,-0.00188724,-0.00193903,-0.00138316,0.00084328,0.04120616,-0.1711,0.1871,-9.7405,-0.003329,-0.002555,-0.000601,28.8748,0.0330,141,0,0,0.002883,0.002727,-0.033112,0.000925,-0.000033,0.011435,-1.0956,-1.0328,-0.2174
14165,11.0,0.002384,0.001933,-0.033036,0.000856,0.000104,0.012133,-1.1562,-1.0994,0.1644,-0.00194865,-0.00191601,-0.00193988,-0.00129563,0.00090286,0.04120544,-0.1823,0.1757,-9.7634,-0.002941,-0.003837,-0.002213,28.8748,0.0330,139,0,1,0.002873,0.002740,-0.032929,0.000937,0.000078,0.011502,-1.0959,-1.0320,-0.2183
14176,11.0,0.002392,0.001939,-0.032959,0.000979,0.000134,0.011728,-1.1563,-1.1000,0.1651,-0.00195392,-0.00191790,-0.00193978,-0.00128399,0.00087680,0.04139591,-0.1735,0.1888,-9.7396,-0.002980,-0.003163,-0.000791,28.8748,0.0330,141,0,0,0.002881,0.002747,-0.032813,0.000944,0.000050,0.011705,-1.0951,-1.0324,-0.2186
14187,11.0,0.002401,0.001947,-0.033459,0.001064,0.000060,0.004515,-1.1544,-1.0992,0.1648,-0.00196974,-0.00192623,-0.00193975,-0.00128238,0.00088922,0.04340868,-0.1755,0.1764,-9.7586,-0.002136,-0.002461,-0.002398,28.8748,0.0340,136,0,0,0.002889,0.002754,-0.032786,0.000993,0.000046,0.011049,-1.0945,-1.0322,-0.2181
14199,12.0,0.002411,0.001955,-0.033448,0.001112,-0.000115,0.004331,-1.1537,-1.0979,0.1660,-0.00197833,-0.00192923,-0.00193957,-0.00126663,0.00084963,0.04355728,-0.1786,0.1649,-9.7337,-0.002128,-0.000520,-0.000073,28.8748,0.0340,136,0,0,0.002905,0.002767,-0.033547,0.000993,0.000044,0.002183,-1.0923,-1.0336,-0.2559
14210,11.0,0.002419,0.001962,-0.033399,0.001146,-0.000098,0.004461,-1.1495,-1.0970,0.1649,-0.00199364,-0.00193730,-0.00193949,-0.00129082,0.00087743,0.04355814,-0.1772,0.1800,-9.7514,0.001591,-0.001990,-0.003610,28.8748,0.0340,136,0,0,0.002913,0.002774,-0.033523,0.000943,-0.000068,0.002637,-1.0908,-1.0331,-0.2554
14221,11.0,0.002428,0.001969,-0.032641,0.001251,-0.000130,0.012767,-1.1501,-1.0963,0.1648,-0.00200103,-0.00194143,-0.00193938,-0.00131341,0.00088708,0.04132097,-0.1687,0.1761,-9.7521,-0.003976,-0.001471,-0.001857,28.8959,0.0320,136,0,0,0.002921,0.002782,-0.033495,0.000899,-0.000218,0.002889,-1.0893,-1.0332,-0.2571
14232,11.0,0.002437,0.001998,-0.032500,0.001319,0.000364,0.012848,-1.1480,-1.0953,0.1646,-0.00203582,-0.00195410,-0.00193870,-0.00135655,0.00084039,0.04132058,-0.1698,0.1781,-9.7582,-0.004883,-0.003024,-0.001631,28.8959,0.0320,136,-1,0,0.002936,0.002795,-0.032489,0.000967,-0.000258,0.012436,-1.0888,-1.0332,-0.2566
14243,11.0,0.002445,0.002006,-0.032424,0.001316,0.000286,0.012314,-1.1454,-1.0946,0.1648,-0.00203986,-0.00195961,-0.00193874,-0.00132882,0.00081899,0.04153421,-0.1756,0.1803,-9.7423,0.001413,-0.001653,-0.001720,28.8959,0.0320,136,0,0,0.002944,0.002827,-0.032431,0.000999,-0.000202,0.011846,-1.0894,-1.0324,-0.2566
14254,11.0,0.002455,0.002014,-0.033214,0.001281,0.000266,0.001866,-1.1447,-1.0938,0.1647,-0.00204984,-0.00196738,-0.00193880,-0.00127972,0.00078925,0.04443578,-0.1807,0.1840,-9.7415,-0.002960,-0.002268,-0.002171,28.8959,0.0340,135,0,0,0.002960,0.002840,-0.033261,0.000974,-0.000346,0.000941,-1.0859,-1.0334,-0.2568
14264,10.0,0.002463,0.002020,-0.033244,0.001342,0.000232,0.001355,-1.1459,-1.0952,0.1144,-0.00205355,-0.00197232,-0.00190338,-0.00118639,0.00083429,0.04459434,-0.1701,0.1824,-9.7546,-0.005830,-0.003940,-0.002923,28.8959,0.0340,142,0,0,0.002968,0.002847,-0.033303,0.000946,-0.000300,0.000634,-1.0861,-1.0335,-0.2574
14275,11.0,0.002497,0.002027,-0.033230,0.001788,0.000152,0.001317,-1.1436,-1.0985,0.1158,-0.00206562,-0.00195732,-0.00190291,-0.00126156,0.00087981,0.04459664,-0.1862,0.1779,-9.7655,-0.000958,-0.005021,0.000428,28.8959,0.0340,136,0,-1,0.002976,0.002853,-0.033296,0.001011,-0.000268,0.000879,-1.0874,-1.0337,-0.2586
14286,11.0,0.002507,0.002034,-0.032592,0.001678,0.000223,0.008894,-1.1433,-1.0977,0.1163,-0.00206942,-0.00196530,-0.00190305,-0.00126116,0.00089762,0.04265866,-0.1784,0.1922,-9.7287,-0.002238,-0.001942,-0.001275,28.8959,0.0320,136,0,0,0.003011,0.002860,-0.033370,0.001009,-0.000354,0.000143,-1.0868,-1.0345,-0.2582
14298,12.0,0.002518,0.002041,-0.032484,0.001706,0.000154,0.009017,-1.1431,-1.0958,0.1155,-0.00208100,-0.00198264,-0.00190311,-0.00130000,0.00093631,0.04265996,-0.1666,0.1793,-9.7541,-0.003977,-0.002336,-0.002904,28.8061,0.0320,137,0,0,0.003026,0.002872,-0.032451,0.000996,-0.000276,0.009758,-1.0855,-1.0356,-0.3415
14309,11.0,0.002528,0.002048,-0.032417,0.001579,0.000130,0.008814,-1.1431,-1.0960,0.1155,-0.00208581,-0.00199015,-0.00190320,-0.00126509,0.00091325,0.04276488,-0.1818,0.1824,-9.7463,-0.002807,-0.003562,-0.001993,28.8061,0.0320,139,0,0,0.003041,0.002885,-0.032287,0.001117,-0.000274,0.010093,-1.0861,-1.0356,-0.3425
14320,11.0,0.002538,0.002055,-0.033232,0.001654,0.000130,-0.001391,-1.1436,-1.0937,0.1151,-0.00209734,-0.00200856,-0.00190312,-0.00127112,0.00088616,0.04557779,-0.1620,0.1823,-9.7317,-0.005269,-0.002209,-0.002234,28.8061,0.0340,139,0,0,0.003050,0.002891,-0.033279,0.001078,-0.000233,-0.001550,-1.0864,-1.0363,-0.3432
14331,11.0,0.002549,0.002063,-0.033270,0.001452,-0.000053,-0.001367,-1.1441,-1.0931,0.1158,-0.00210440,-0.00201432,-0.00190307,-0.00124416,0.00085353,0.04565638,-0.1922,0.1621,-9.7318,-0.003957,-0.002004,-0.000754,28.8061,0.0340,144,0,0,0.003058,0.002899,-0.033293,0.001171,-0.000240,-0.001153,-1.0878,-1.0356,-0.3434
14342,11.0,0.002558,0.002069,-0.033286,0.001506,0.000033,-0.001433,-1.1436,-1.0918,0.1156,-0.00211225,-0.00202935,-0.00190290,-0.00128906,0.00084836,0.04565698,-0.1664,0.1904,-9.7671,-0.002844,-0.003069,-0.001764,28.8061,0.0320,144,0,0,0.003073,0.002912,-0.032614,0.001266,-0.000370,0.007498,-1.0882,-1.0349,-0.3419
14353,11.0,0.002568,0.002075,-0.032596,0.001395,0.000161,0.007003,-1.1432,-1.0924,0.1151,-0.00211610,-0.00203463,-0.00190295,-0.00130378,0.00086930,0.04351110,-0.1836,0.1970,-9.7328,-0.002150,-0.003803,-0.002775,28.7691,0.0320,141,0,0,0.003081,0.002919,-0.032538,0.001315,-0.000307,0.007624,-1.0886,-1.0340,-0.3422
14364,11.0,0.002576,0.002081,-0.032517,0.001533,0.000220,0.007312,-1.1439,-1.0904,0.1145,-0.00212179,-0.00205322,-0.00190272,-0.00137967,0.00086816,0.04351234,-0.1573,0.1914,-9.7354,-0.004192,-0.002910,-0.002380,28.7691,0.0320,137,0,0,0.003089,0.002924,-0.032478,0.001186,-0.000193,0.007735,-1.0884,-1.0344,-0.3425
14375,11.0,0.002586,0.002088,-0.032457,0.001529,0.000310,0.007011,-1.1423,-1.0909,0.0048,-0.00212487,-0.00206022,-0.00182076,-0.00119523,0.00099476,0.04357135,-0.1729,0.1951,-9.7696,-0.002389,-0.001573,-0.004023,28.7691,0.0340,138,0,0,0.003104,0.002937,-0.032317,0.001259,-0.000100,0.008282,-1.0891,-1.0345,-0.3434
14386,11.0,0.002597,0.002094,-0.033253,0.001364,0.000414,-0.003000,-1.1415,-1.0933,0.0074,-0.00212490,-0.00206459,-0.00182085,-0.00111278,0.00091509,0.04621496,-0.1902,0.2013,-9.7534,-0.000679,-0.006556,0.002069,28.7691,0.0340,135,0,0,0.003113,0.002943,-0.033356,0.001254,0.000012,-0.003646,-1.0895,-1.0340,-0.3440
14397,11.0,0.002606,0.002101,-0.033301,0.001350,0.000464,-0.003298,-1.1413,-1.0937,0.0066,-0.00212691,-0.00206939,-0.00182097,-0.00109055,0.00090515,0.04625958,-0.1776,0.1961,-9.7716,-0.002116,-0.003530,-0.003209,28.7691,0.0340,135,0,0,0.003121,0.002949,-0.033391,0.001167,0.000120,-0.003421,-1.0877,-1.0356,-0.3749
14408,11.0,0.002615,0.002108,-0.033337,0.001486,0.000536,-0.003180,-1.1417,-1.0923,0.0083,-0.00212596,-0.00208690,-0.00182073,-0.00116343,0.00088359,0.04626041,-0.1587,0.2003,-9.7498,-0.002495,-0.003614,0.001460,28.7691,0.0320,139,0,0,0.003137,0.002962,-0.033478,0.001138,0.000394,-0.003265,-1.0876,-1.0357,-0.3765
14419,11.0,0.002624,0.002115,-0.032631,0.001469,0.000498,0.005563,-1.1418,-1.0924,0.0099,-0.00212703,-0.00209264,-0.00182092,-0.00117708,0.00092068,0.04403804,-0.1737,0.1891,-9.7445,-0.002405,-0.003298,0.000512,28.7691,0.0320,141,0,0,0.003145,0.002968,-0.032589,0.001218,0.000509,0.006804,-1.0886,-1.0349,-0.3759
14430,11.0,0.002633,0.002122,-0.032569,0.001461,0.000626,0.005655,-1.1433,-1.0914,0.0084,-0.00212278,-0.00210414,-0.00182081,-0.00119986,0.00087752,0.04403758,-0.1729,0.2074,-9.7539,-0.003368,-0.002861,-0.003848,28.7691,0.0320,135,0,0,0.003160,0.002982,-0.032468,0.001308,0.000546,0.006745,-1.0898,-1.0327,-0.3756
14442,12.0,0.002645,0.002131,-0.032529,0.001453,0.000546,0.005502,-1.1446,-1.0897,0.0084,-0.00212467,-0.00210969,-0.00182097,-0.00117325,0.00086711,0.04412429,-0.1753,0.1851,-9.7471,-0.004406,-0.000474,-0.001916,28.7929,0.0340,140,0,0,0.003168,0.002988,-0.032436,0.001264,0.000662,0.006528,-1.0897,-1.0326,-0.3762
14454,12.0,0.002656,0.002139,-0.033308,0.001388,0.000530,-0.004098,-1.1449,-1.0887,0.0084,-0.00212849,-0.00211748,-0.00182111,-0.00112457,0.00082662,0.04661790,-0.1807,0.1911,-9.7538,-0.003286,-0.002060,-0.001835,28.7929,0.0340,142,0,0,0.003185,0.003002,-0.033369,0.001177,0.000752,-0.003306,-1.0903,-1.0309,-0.3770
14465,11.0,0.002665,0.002147,-0.033372,0.001459,0.000513,-0.003999,-1.1456,-1.0878,0.0085,-0.00213044,-0.00212310,-0.00182127,-0.00109790,0.00081628,0.04668286,-0.1658,0.1895,-9.7280,-0.003500,-0.001540,-0.001813,28.7929,0.0340,139,0,0,0.003193,0.003009,-0.033429,0.001145,0.000763,-0.003439,-1.0907,-1.0310,-0.3774
14476,11.0,0.002675,0.002155,-0.033416,0.001353,0.000440,-0.003844,-1.1459,-1.0874,0.0092,-0.00213685,-0.00212915,-0.00182152,-0.00108487,0.00084861,0.04668318,-0.1835,0.1845,-9.7457,-0.004069,-0.002628,-0.001071,28.7929,0.0320,140,0,0,0.003201,0.003016,-0.033462,0.001206,0.000795,-0.003066,-1.0910,-1.0302,-0.3774
14487,11.0,0.002684,0.002162,-0.032670,0.001350,0.000345,0.005366,-1.1468,-1.0857,0.0587,-0.00214013,-0.00213336,-0.00186192,-0.00117739,0.00081341,0.04437749,-0.1739,0.1803,-9.7453,-0.003137,-0.001323,-0.002932,28.7929,0.0320,139,0,0,0.003217,0.003031,-0.032547,0.001170,0.000702,0.006984,-1.0923,-1.0280,-0.3382
14498,11.0,0.002693,0.002170,-0.032611,0.001309,0.000354,0.005393,-1.1463,-1.0845,0.0577,-0.00214533,-0.00214085,-0.00186197,-0.00118249,0.00082193,0.04437768,-0.1782,0.1901,-9.7598,-0.002417,-0.001731,-0.003429,28.7585,0.0320,137,0,0,0.003224,0.003037,-0.032476,0.001196,0.000682,0.007278,-1.0926,-1.0270,-0.3392
14509,11.0,0.002702,0.002176,-0.032566,0.001416,0.000385,0.005343,-1.1471,-1.0847,0.0580,-0.00214757,-0.00214631,-0.00186211,-0.00115664,0.00081060,0.04442297,-0.1625,0.1937,-9.7504,-0.003838,-0.003321,-0.001670,28.7585,0.0320,135,0,0,0.003240,0.003051,-0.032346,0.001178,0.000814,0.007648,-1.0943,-1.0248,-0.3393
14520,11.0,0.002712,0.002184,-0.033312,0.001421,0.000296,-0.003702,-1.1453,-1.0828,0.0567,-0.00215827,-0.00215712,-0.00186224,-0.00113794,0.00080919,0.04677437,-0.1717,0.1780,-9.7394,-0.001595,-0.001458,-0.003995,28.7585,0.0340,136,0,0,0.003249,0.003057,-0.033389,0.001155,0.000868,-0.003967,-1.0945,-1.0249,-0.3395
14531,11.0,0.002721,0.002191,-0.033364,0.001499,0.000348,-0.003831,-1.1454,-1.0831,0.0568,-0.00216111,-0.00216286,-0.00186237,-0.00111084,0.00079529,0.04680818,-0.1641,0.1940,-9.7592,-0.002911,-0.003575,-0.001785,28.7585,0.0340,133,0,0,0.003257,0.003065,-0.033427,0.001158,0.000850,-0.003719,-1.0941,-1.0242,-0.3403
14542,11.0,0.002730,0.002198,-0.033405,0.001562,0.000279,-0.003621,-1.1448,-1.0821,0.0577,-0.00216938,-0.00217815,-0.00186238,-0.00116215,0.00083175,0.04680971,-0.1620,0.1817,-9.7411,-0.002964,-0.003988,-0.000352,28.7585,0.0320,133,0,0,0.003265,0.003072,-0.033463,0.001174,0.000872,-0.003567,-1.0942,-1.0242,-0.3403
14553,11.0,0.002740,0.002205,-0.032662,0.001473,0.000315,0.005491,-1.1443,-1.0825,0.0571,-0.00217195,-0.00218360,-0.00186251,-0.00117620,0.00086444,0.04454099,-0.1785,0.1925,-9.7541,-0.001839,-0.003647,-0.002890,28.7585,0.0320,141,0,0,0.003279,0.003084,-0.032613,0.001401,0.001001,0.005942,-1.0963,-1.0236,-0.3410
14564,11.0,0.002749,0.002213,-0.032600,0.001407,0.000188,0.005849,-1.1445,-1.0807,0.0566,-0.00218484,-0.00219141,-0.00186278,-0.00117809,0.00092707,0.04454213,-0.1778,0.1724,-9.7298,-0.005563,-0.000901,-0.002987,28.7585,0.0320,135,0,0,0.003295,0.003097,-0.032505,0.001369,0.001076,0.006409,-1.0976,-1.0236,-0.3435
14575,11.0,0.002759,0.002220,-0.032545,0.001350,0.000094,0.005870,-1.1448,-1.0808,0.0566,-0.00218975,-0.00219578,-0.00186277,-0.00115705,0.00090348,0.04457207,-0.1793,0.1746,-9.7492,-0.003428,-0.003226,-0.001848,28.7453,0.0340,139,0,0,0.003304,0.003105,-0.033339,0.001322,0.000973,-0.003337,-1.0975,-1.0230,-0.3433
14586,11.0,0.002745,0.002226,-0.033298,0.000741,0.000287,-0.003456,-1.1452,-1.0789,0.0567,-0.00219000,-0.00221870,-0.00186336,-0.00102223,0.00080838,0.04692525,-0.1824,0.2053,-9.7477,-0.002624,-0.003166,-0.002046,28.7453,0.0340,137,0,1,0.003312,0.003112,-0.033380,0.001342,0.000913,-0.003246,-1.0974,-1.0232,-0.3430
14597,11.0,0.002754,0.002233,-0.033344,0.000813,0.000284,-0.003506,-1.1467,-1.0780,0.1175,-0.00219404,-0.00221822,-0.00191575,-0.00111276,0.00070637,0.04694790,-0.1789,0.1870,-9.7558,-0.003918,-0.002073,-0.003639,28.7453,0.0340,142,0,0,0.003302,0.003126,-0.033453,0.001169,0.000969,-0.002867,-1.0996,-1.0217,-0.2922
14608,11.0,0.002762,0.002240,-0.033382,0.000871,0.000428,-0.003428,-1.1475,-1.0776,0.1170,-0.00219345,-0.00222119,-0.00191549,-0.00113128,0.00066958,0.04694751,-0.1782,0.2041,-9.7523,-0.003131,-0.002302,-0.002432,28.7453,0.0330,143,0,0,0.003311,0.003133,-0.033481,0.001123,0.000987,-0.002681,-1.1000,-1.0220,-0.2931
14619,11.0,0.002793,0.002247,-0.033191,0.001551,0.000593,-0.000712,-1.1477,-1.0797,0.1168,-0.00219415,-0.00220610,-0.00191480,-0.00121367,0.00067925,0.04629667,-0.1651,0.2098,-9.7530,-0.002664,-0.002858,-0.001594,28.7453,0.0330,136,0,-1,0.003344,0.003139,-0.033173,0.001164,0.001100,0.001055,-1.1001,-1.0224,-0.2933
14630,11.0,0.002803,0.002254,-0.033199,0.001493,0.000608,-0.000772,-1.1482,-1.0775,0.1169,-0.00219559,-0.00221493,-0.00191489,-0.00121829,0.00067768,0.04629667,-0.1755,0.1955,-9.7657,-0.003374,-0.000556,-0.001718,28.8246,0.0330,134,0,0,0.003386,0.003153,-0.033157,0.001220,0.001130,0.001538,-1.1013,-1.0209,-0.2946
14641,11.0,0.002814,0.002262,-0.033246,0.001255,0.000481,-0.001038,-1.1498,-1.0787,0.1181,-0.00219680,-0.00221857,-0.00191500,-0.00119904,0.00066961,0.04641084,-0.1968,0.1821,-9.7418,-0.004899,-0.004806,-0.000228,28.8246,0.0330,140,0,0,0.003394,0.003161,-0.033194,0.001169,0.001153,0.001064,-1.1020,-1.0204,-0.2939
14652,11.0,0.002823,0.002270,-0.033109,0.001345,0.000372,0.001096,-1.1472,-1.0778,0.1191,-0.00220517,-0.00223059,-0.00191501,-0.00125795,0.00072502,0.04600252,-0.1634,0.1794,-9.7191,0.000036,-0.003706,-0.000257,28.8246,0.0330,137,0,0,0.003403,0.003167,-0.033065,0.000951,0.001099,0.002583,-1.1030,-1.0209,-0.2931
14663,11.0,0.002832,0.002277,-0.033129,0.001353,0.000258,0.000558,-1.1480,-1.0785,0.1185,-0.00220829,-0.00223500,-0.00191508,-0.00123533,0.00070828,0.04608993,-0.1730,0.1782,-9.7770,-0.004138,-0.004027,-0.002996,28.8246,0.0330,137,0,0,0.003419,0.003182,-0.033046,0.000953,0.000987,0.002837,-1.1027,-1.0207,-0.2906
14674,11.0,0.002842,0.002283,-0.033121,0.001308,0.000416,0.000739,-1.1477,-1.0785,0.1194,-0.00220704,-0.00224167,-0.00191493,-0.00123944,0.00066654,0.04608917,-0.1776,0.2058,-9.7437,-0.001123,-0.003608,-0.000209,28.8246,0.0330,137,0,0,0.003427,0.003189,-0.033017,0.000995,0.000884,0.002915,-1.1024,-1.0208,-0.2908
14685,11.0,0.002827,0.002291,-0.033068,0.000809,0.000284,0.001366,-1.1479,-1.0765,0.1201,-0.00221017,-0.00226235,-0.00191568,-0.00114250,0.00065356,0.04596141,-0.1721,0.1761,-9.7509,-0.003145,-0.002813,-0.001298,28.8246,0.0330,143,0,1,0.003435,0.003195,-0.033013,0.001022,0.000993,0.002850,-1.1026,-1.0209,-0.2889
14696,11.0,0.002836,0.002298,-0.033051,0.000915,0.000207,0.001630,-1.1471,-1.0759,0.1204,-0.00222021,-0.00226753,-0.00191566,-0.00117922,0.00069743,0.04596286,-0.1721,0.1783,-9.7369,-0.003207,-0.002574,-0.001432,28.8246,0.0330,137,0,0,0.003425,0.003209,-0.032952,0.000927,0.000829,0.003207,-1.1014,-1.0209,-0.3512
14707,11.0,0.002844,0.002305,-0.033073,0.000916,0.000134,0.001207,-1.1459,-1.0779,0.0422,-0.00222358,-0.00226923,-0.00184580,-0.00105621,0.00078391,0.04607524,-0.1825,0.1786,-9.7567,-0.002528,-0.004088,-0.001956,28.8246,0.0330,138,0,0,0.003433,0.003216,-0.032969,0.000919,0.000770,0.002960,-1.1012,-1.0206,-0.3511
14718,11.0,0.002853,0.002312,-0.033020,0.000845,0.000104,0.001904,-1.1435,-1.0794,0.0422,-0.00223296,-0.00226792,-0.00184595,-0.00103720,0.00081602,0.04596914,-0.1902,0.1809,-9.7372,-0.000668,-0.004215,-0.002248,28.7532,0.0330,139,0,0,0.003441,0.003223,-0.032938,0.000904,0.000668,0.003176,-1.1014,-1.0217,-0.3509
14729,11.0,0.002838,0.002318,-0.033008,0.000383,0.000223,0.001976,-1.1429,-1.0775,0.0416,-0.00223665,-0.00228504,-0.00184652,-0.00095346,0.00079717,0.04599610,-0.1779,0.1964,-9.7429,-0.001912,-0.002231,-0.003029,28.7532,0.0330,137,0,1,0.003458,0.003237,-0.032941,0.000614,0.000438,0.002938,-1.1000,-1.0235,-0.3512
14740,11.0,0.002822,0.002325,-0.032986,0.000019,0.000395,0.002070,-1.1429,-1.0756,0.0431,-0.00223556,-0.00230202,-0.00184678,-0.00091047,0.00075209,0.04599436,-0.1764,0.2056,-9.7518,-0.001702,-0.002628,0.000507,28.7532,0.0330,137,0,1,0.003440,0.003244,-0.032910,0.000515,0.000449,0.003257,-1.0999,-1.0232,-0.3522
14751,11.0,0.002852,0.002309,-0.032984,0.000981,-0.000305,0.001781,-1.1448,-1.0781,0.0434,-0.00222305,-0.00228353,-0.00184648,-0.00099984,0.00081243,0.04605571,-0.1519,0.1694,-9.7656,-0.002991,-0.003033,-0.001216,28.7532,0.0330,139,1,-1,0.003430,0.003258,-0.032918,0.000412,0.000500,0.002924,-1.0987,-1.0221,-0.3512
14762,11.0,0.002860,0.002314,-0.032965,0.001116,-0.000119,0.001745,-1.1450,-1.0779,0.0440,-0.00222859,-0.00229244,-0.00184604,-0.00105236,0.00078193,0.04605600,-0.1654,0.1968,-9.7639,-0.003528,-0.004244,-0.000424,28.7532,0.0330,141,0,0,0.003463,0.003240,-0.032900,0.000665,0.000239,0.002946,-1.0988,-1.0228,-0.3509
14773,11.0,0.002869,0.002320,-0.032966,0.001225,0.000042,0.001714,-1.1451,-1.0778,0.0436,-0.00223346,-0.00229572,-0.00184600,-0.00103508,0.00075675,0.04611699,-0.1656,0.1967,-9.7398,-0.003299,-0.002598,-0.002465,28.7770,0.0330,137,0,0,0.003478,0.003253,-0.032838,0.000749,0.000394,0.003339,-1.0999,-1.0227,-0.3510
14784,11.0,0.002878,0.002327,-0.032968,0.001199,-0.000135,0.001765,-1.1413,-1.0794,0.0456,-0.00225009,-0.00230136,-0.00184631,-0.00104282,0.00083929,0.04618125,-0.1776,0.1624,-9.7324,-0.000123,-0.006172,0.000813,28.7770,0.0330,139,0,0,0.003486,0.003259,-0.032936,0.000783,0.000542,0.002077,-1.1015,-1.0224,-0.3519
14795,11.0,0.002886,0.002333,-0.032965,0.001354,-0.000181,0.001704,-1.1411,-1.0807,0.0475,-0.00225611,-0.00230558,-0.00184626,-0.00102103,0.00080854,0.04622772,-0.1590,0.1739,-9.7483,-0.003014,-0.005170,0.001106,28.7770,0.0330,133,0,0,0.003494,0.003266,-0.032914,0.000734,0.000405,0.002386,-1.1003,-1.0238,-0.3556
14808,13.0,0.002898,0.002339,-0.032942,0.001348,-0.000014,0.001896,-1.1414,-1.0784,0.0468,-0.00226229,-0.00231299,-0.00184608,-0.00103179,0.00078453,0.04622738,-0.1752,0.1941,-9.7456,-0.003654,-0.000617,-0.002566,28.7770,0.0330,135,0,0,0.003509,0.003279,-0.032886,0.000810,0.000448,0.002740,-1.1004,-1.0236,-0.3566
14819,11.0,0.002907,0.002345,-0.032971,0.001404,-0.000040,0.001445,-1.1405,-1.0799,0.0389,-0.00226726,-0.00231776,-0.00184024,-0.00099660,0.00076559,0.04636282,-0.1663,0.1784,-9.7490,-0.002005,-0.005467,-0.004488,28.7770,0.0330,140,0,0,0.003517,0.003286,-0.032937,0.000771,0.000440,0.002144,-1.1003,-1.0231,-0.3572
14830,11.0,0.002917,0.002351,-0.032954,0.001298,-0.000035,0.001623,-1.1392,-1.0816,0.0396,-0.00227667,-0.00232213,-0.00184040,-0.00098320,0.00078822,0.04636294,-0.1835,0.1811,-9.7441,-0.002367,-0.005766,-0.001039,28.7770,0.0330,138,0,0,0.003533,0.003299,-0.032911,0.000835,0.000356,0.002312,-1.1006,-1.0240,-0.3591
14841,11.0,0.002926,0.002358,-0.032958,0.001329,0.000013,0.001328,-1.1394,-1.0818,0.0410,-0.00228151,-0.00232611,-0.00184038,-0.00096218,0.00076284,0.04642339,-0.1713,0.1855,-9.7634,-0.003415,-0.003466,0.000337,28.7770,0.0330,136,0,0,0.003541,0.003306,-0.032915,0.000800,0.000262,0.002302,-1.1006,-1.0254,-0.3590
14852,11.0,0.002935,0.002365,-0.032967,0.001496,-0.000070,0.001130,-1.1371,-1.0795,0.0408,-0.00229506,-0.00234142,-0.00184024,-0.00103846,0.00081552,0.04649067,-0.1539,0.1702,-9.7537,-0.001834,-0.002492,-0.001902,28.7770,0.0330,136,0,0,0.003557,0.003319,-0.032930,0.000805,0.000240,0.001907,-1.0991,-1.0254,-0.3568
14864,12.0,0.002945,0.002372,-0.032985,0.001489,0.000040,0.001117,-1.1364,-1.0783,0.0398,-0.00230011,-0.00234665,-0.00184027,-0.00101050,0.00078826,0.04658203,-0.1711,0.1898,-9.7282,-0.002242,-0.001373,-0.003342,28.8325,0.0330,142,0,0,0.003565,0.003326,-0.032953,0.000832,0.000195,0.001576,-1.0985,-1.0256,-0.3566
14875,11.0,0.002955,0.002377,-0.032973,0.001386,0.000103,0.001134,-1.1351,-1.0805,0.0410,-0.00230507,-0.00235238,-0.00184032,-0.00100121,0.00078510,0.04658175,-0.1811,0.1899,-9.7585,-0.001249,-0.007063,0.000093,28.8325,0.0330,142,0,0,0.003572,0.003333,-0.032935,0.000832,0.000227,0.001978,-1.0983,-1.0251,-0.3574
14886,11.0,0.002964,0.002384,-0.033000,0.001349,0.000107,0.000708,-1.1333,-1.0800,0.0403,-0.00230942,-0.00235660,-0.00184033,-0.00097799,0.00076106,0.04668850,-0.1763,0.1820,-9.7566,-0.000226,-0.002356,-0.003069,28.8325,0.0330,134,0,0,0.003588,0.003345,-0.032972,0.000864,0.000247,0.001456,-1.0992,-1.0255,-0.2819
14897,11.0,0.002973,0.002391,-0.032991,0.001431,0.000020,0.001026,-1.1315,-1.0788,0.0404,-0.00232133,-0.00236823,-0.00184032,-0.00102757,0.00081292,0.04669029,-0.1628,0.1710,-9.7317,-0.002440,-0.003382,-0.001649,28.8325,0.0330,135,0,0,0.003596,0.003352,-0.032956,0.000856,0.000252,0.001617,-1.0977,-1.0259,-0.2823
14908,11.0,0.002983,0.002398,-0.033022,0.001337,0.000013,0.000492,-1.1316,-1.0783,0.0404,-0.00232622,-0.00237215,-0.00184029,-0.00100559,0.00078587,0.04680550,-0.1822,0.1787,-9.7627,-0.003308,-0.002269,-0.001677,28.8325,0.0330,138,0,0,0.003603,0.003359,-0.032992,0.000958,0.000157,0.001345,-1.0976,-1.0266,-0.2819
14919,11.0,0.002993,0.002405,-0.033001,0.001296,0.000158,0.000563,-1.1315,-1.0771,0.0400,-0.00232953,-0.00237780,-0.00184013,-0.00100934,0.00076039,0.04676208,-0.1779,0.1956,-9.7702,-0.002806,-0.001749,-0.002264,28.7981,0.0330,141,0,0,0.003619,0.003372,-0.032992,0.001023,0.000133,0.001546,-1.0971,-1.0272,-0.2819
14930,11.0,0.003025,0.002412,-0.033018,0.001910,0.000127,0.000304,-1.1312,-1.0767,0.1278,-0.00233463,-0.00236643,-0.00192736,-0.00119641,0.00061225,0.04682500,-0.1626,0.1784,-9.7591,-0.000830,-0.001628,-0.003825,28.7981,0.0330,134,0,-1,0.003627,0.003379,-0.032976,0.001013,0.000136,0.001619,-1.0969,-1.0268,-0.2822
14941,11.0,0.003058,0.002419,-0.033014,0.002278,0.000252,0.000439,-1.1310,-1.0757,0.1269,-0.00233768,-0.00236212,-0.00192670,-0.00126490,0.00059179,0.04682586,-0.1746,0.1947,-9.7474,-0.002711,-0.000156,-0.002778,28.7981,0.0320,134,0,-1,0.003660,0.003386,-0.032959,0.001153,0.000089,0.001755,-1.0963,-1.0267,-0.2835
14952,11.0,0.003070,0.002425,-0.032471,0.002010,0.000264,0.006838,-1.1321,-1.0758,0.1276,-0.00234000,-0.00237047,-0.00192699,-0.00124600,0.00060525,0.04541383,-0.1821,0.1868,-9.7410,-0.004378,-0.004184,-0.001003,28.7981,0.0320,142,0,0,0.003700,0.003399,-0.032314,0.001187,0.000009,0.008264,-1.0957,-1.0268,-0.2843
14963,11.0,0.003081,0.002433,-0.032396,0.001671,0.000329,0.006916,-1.1329,-1.0745,0.1272,-0.00234354,-0.00237277,-0.00192742,-0.00117240,0.00059930,0.04541234,-0.1967,0.1914,-9.7537,-0.004489,-0.000251,-0.002876,28.7981,0.0320,140,0,0,0.003708,0.003405,-0.032260,0.001151,0.000038,0.008230,-1.0965,-1.0273,-0.2843
14974,11.0,0.003091,0.002440,-0.032349,0.001591,0.000321,0.006679,-1.1350,-1.0735,0.1272,-0.00234618,-0.00237818,-0.00192755,-0.00114299,0.00058409,0.04549203,-0.1748,0.1852,-9.7505,-0.006126,-0.001828,-0.001988,28.7981,0.0330,134,0,0,0.003724,0.003420,-0.032624,0.001129,0.000006,0.002946,-1.0973,-1.0239,-0.2854
14985,11.0,0.003102,0.002447,-0.032661,0.001452,0.000414,0.002506,-1.1343,-1.0729,0.1280,-0.00234758,-0.00238350,-0.00192762,-0.00110597,0.00054680,0.04650451,-0.1820,0.1965,-9.7330,-0.001437,-0.002478,-0.000668,28.7981,0.0330,140,0,0,0.003732,0.003427,-0.032618,0.001105,-0.000050,0.002850,-1.0981,-1.0234,-0.2852
14996,11.0,0.003111,0.002453,-0.032663,0.001428,0.000521,0.002195,-1.1354,-1.0733,0.1274,-0.00234851,-0.00238784,-0.00192780,-0.00108201,0.00054037,0.04658373,-0.1729,0.2014,-9.7560,-0.004202,-0.003966,-0.003026,28.8219,0.0330,144,0,0,0.003740,0.003434,-0.032588,0.001039,0.000024,0.003160,-1.0978,-1.0234,-0.2957
15007,11.0,0.003121,0.002461,-0.032638,0.001352,0.000323,0.002422,-1.1314,-1.0746,0.1277,-0.00235791,-0.00239403,-0.00192820,-0.00108173,0.00060985,0.04658500,-0.1775,0.1692,-9.7398,0.001418,-0.005723,-0.001948,28.8219,0.0320,138,0,0,0.003756,0.003446,-0.032226,0.001054,0.000170,0.006930,-1.0990,-1.0241,-0.2957
15018,11.0,0.003130,0.002467,-0.032295,0.001225,0.000410,0.006446,-1.1310,-1.0743,0.1276,-0.00235962,-0.00239710,-0.00192827,-0.00108023,0.00061619,0.04576945,-0.1856,0.1957,-9.7240,-0.002064,-0.002582,-0.002135,28.8219,0.0320,139,0,0,0.003764,0.003453,-0.032155,0.001030,-0.000010,0.007258,-1.0976,-1.0250,-0.2960
15029,11.0,0.003139,0.002474,-0.032224,0.001193,0.000355,0.006485,-1.1311,-1.0754,0.1276,-0.00236444,-0.00240169,-0.00192841,-0.00108417,0.00064105,0.04576996,-0.1784,0.1833,-9.7574,-0.003833,-0.005196,-0.001977,28.8219,0.0320,139,0,0,0.003779,0.003466,-0.032045,0.000990,-0.000050,0.007552,-1.0962,-1.0245,-0.2964
15040,11.0,0.003149,0.002482,-0.032191,0.001177,0.000119,0.006045,-1.1308,-1.0748,0.1125,-0.00236831,-0.00240446,-0.00191351,-0.00104654,0.00063823,0.04587189,-0.1781,0.1595,-9.7596,-0.003000,-0.001554,-0.003035,28.8219,0.0330,131,0,0,0.003787,0.003473,-0.032600,0.000972,-0.000030,0.000922,-1.0964,-1.0253,-0.2966
15051,11.0,0.003158,0.002489,-0.032593,0.001069,0.000227,0.000589,-1.1316,-1.0742,0.1115,-0.00237182,-0.00240492,-0.00191354,-0.00099779,0.00059880,0.04707753,-0.1889,0.1933,-9.7642,-0.004231,-0.001420,-0.003528,28.8219,0.0330,138,0,0,0.003795,0.003480,-0.032590,0.000970,-0.000236,0.001087,-1.0963,-1.0247,-0.2972
15062,11.0,0.003167,0.002496,-0.032632,0.001014,0.000146,0.000122,-1.1308,-1.0755,0.1118,-0.00237514,-0.00240650,-0.00191345,-0.00098706,0.00057893,0.04719915,-0.1846,0.1757,-9.7522,-0.001778,-0.004794,-0.001322,28.8801,0.0330,138,0,0,0.003811,0.003495,-0.032642,0.000947,-0.000290,0.000566,-1.0989,-1.0229,-0.2991
15074,12.0,0.003154,0.002503,-0.032630,0.000560,0.000162,0.000226,-1.1281,-1.0733,0.1120,-0.00238111,-0.00242553,-0.00191399,-0.00093580,0.00058813,0.04719827,-0.1735,0.1846,-9.7509,0.000264,-0.002910,-0.001857,28.8801,0.0320,138,0,1,0.003819,0.003501,-0.032635,0.000878,-0.000352,0.000768,-1.0982,-1.0235,-0.2985
15085,11.0,0.003161,0.002510,-0.032312,0.000782,0.000102,0.004000,-1.1285,-1.0729,0.1095,-0.00238492,-0.00242556,-0.00191381,-0.00095052,0.00058282,0.04639830,-0.1639,0.1748,-9.7456,-0.003900,-0.001757,-0.005859,28.8801,0.0320,134,0,0,0.003802,0.003509,-0.032258,0.000747,-0.000484,0.004777,-1.0978,-1.0233,-0.2990
15096,11.0,0.003169,0.002516,-0.032268,0.000957,0.000249,0.004041,-1.1297,-1.0722,0.1074,-0.00238614,-0.00243253,-0.00191329,-0.00100719,0.00055321,0.04639873,-0.1639,0.1983,-9.7565,-0.004395,-0.003245,-0.004726,28.8801,0.0320,142,0,0,0.003818,0.003524,-0.032159,0.000776,-0.000735,0.005122,-1.0979,-1.0201,-0.2965
15108,12.0,0.003178,0.002522,-0.032281,0.000955,0.000401,0.003405,-1.1278,-1.0717,0.1082,-0.00238813,-0.00243397,-0.00191327,-0.00099647,0.00053950,0.04655907,-0.1802,0.2003,-9.7521,0.000067,-0.001937,-0.000697,28.8801,0.0320,139,0,0,0.003833,0.003535,-0.032021,0.000778,-0.000451,0.005674,-1.0980,-1.0202,-0.2980
15119,11.0,0.003187,0.002529,-0.032103,0.000947,0.000351,0.005161,-1.1267,-1.0730,0.1073,-0.00239286,-0.00243610,-0.00191338,-0.00100657,0.00057019,0.04620758,-0.1806,0.1825,-9.7463,-0.001973,-0.004934,-0.003466,28.8801,0.0320,141,0,0,0.003841,0.003541,-0.032020,0.000733,-0.000362,0.005257,-1.0978,-1.0203,-0.2979
15130,11.0,0.003195,0.002537,-0.032091,0.001029,0.000268,0.004781,-1.1272,-1.0730,0.1081,-0.00239546,-0.00243782,-0.00191334,-0.00099499,0.00055387,0.04632842,-0.1711,0.1767,-9.7450,-0.003609,-0.002786,-0.000610,28.8801,0.0320,134,0,0,0.003849,0.003547,-0.031967,0.000674,-0.000403,0.005500,-1.0977,-1.0214,-0.2985
15141,11.0,0.003203,0.002543,-0.032038,0.001092,0.000397,0.004876,-1.1260,-1.0723,0.1095,-0.00239543,-0.00244376,-0.00191301,-0.00102390,0.00052410,0.04632835,-0.1707,0.1991,-9.7516,-0.000348,-0.002930,0.000644,28.9355,0.0320,134,0,0,0.003856,0.003554,-0.031910,0.000697,-0.000481,0.005836,-1.0972,-1.0212,-0.2980
15152,11.0,0.003212,0.002549,-0.032035,0.001083,0.000416,0.004165,-1.1256,-1.0734,0.1118,-0.00239681,-0.00244584,-0.00191579,-0.00101403,0.00051077,0.04645125,-0.1784,0.1907,-9.7734,-0.001896,-0.004707,-0.002422,28.9355,0.0320,138,0,0,0.003897,0.003566,-0.031946,0.000826,-0.000357,0.004865,-1.0973,-1.0196,-0.2965
15163,11.0,0.003220,0.002556,-0.031988,0.001096,0.000481,0.004390,-1.1249,-1.0724,0.1103,-0.00239774,-0.00245040,-0.00191566,-0.00102860,0.00049884,0.04645126,-0.1753,0.1940,-9.7397,-0.001497,-0.002004,-0.004029,28.9355,0.0320,134,0,0,0.003904,0.003572,-0.031984,0.000795,-0.000267,0.003945,-1.0972,-1.0201,-0.2967
15174,11.0,0.003229,0.002564,-0.032020,0.001112,0.000381,0.003395,-1.1253,-1.0733,0.1098,-0.00239935,-0.00245262,-0.00191570,-0.00101271,0.00048604,0.04665809,-0.1756,0.1784,-9.7640,-0.003459,-0.004187,-0.002905,28.9355,0.0320,136,0,0,0.003920,0.003584,-0.031953,0.000782,-0.000023,0.003925,-1.0973,-1.0198,-0.2971
15185,11.0,0.003238,0.002571,-0.031985,0.001107,0.000289,0.003457,-1.1234,-1.0736,0.1087,-0.00240611,-0.00245680,-0.00191586,-0.00102218,0.00052477,0.04666718,-0.1770,0.1762,-9.7511,-0.001139,-0.003996,-0.003816,28.9355,0.0320,141,0,0,0.003927,0.003591,-0.031979,0.000732,-0.000103,0.003304,-1.0968,-1.0211,-0.2974
15196,11.0,0.003247,0.002577,-0.032005,0.001050,0.000303,0.002906,-1.1238,-1.0741,0.1115,-0.00240826,-0.00245861,-0.00191584,-0.00100948,0.00051006,0.04681839,-0.1834,0.1863,-9.7461,-0.003379,-0.003743,0.002562,28.9250,0.0320,141,0,0,0.003935,0.003597,-0.031945,0.000696,-0.000164,0.003495,-1.0958,-1.0219,-0.3088
15207,11.0,0.003256,0.002584,-0.031973,0.001027,0.000397,0.002972,-1.1254,-1.0743,0.1101,-0.00240893,-0.00246093,-0.00191574,-0.00100934,0.00049131,0.04681802,-0.1812,0.1959,-9.7536,-0.005072,-0.003312,-0.004049,28.9250,0.0320,138,0,0,0.003951,0.003609,-0.031985,0.000579,-0.000062,0.002897,-1.0942,-1.0234,-0.3078
15218,11.0,0.003264,0.002591,-0.032012,0.001199,0.000297,0.002077,-1.1269,-1.0740,0.1086,-0.00241126,-0.00246356,-0.00191576,-0.00099159,0.00047505,0.04699365,-0.1602,0.1760,-9.7672,-0.005298,-0.002362,-0.004194,28.9250,0.0320,139,0,0,0.003959,0.003615,-0.031955,0.000539,-0.000065,0.003065,-1.0947,-1.0240,-0.3086
15229,11.0,0.003273,0.002598,-0.031988,0.001134,0.000318,0.002252,-1.1268,-1.0739,0.1087,-0.00241497,-0.00246631,-0.00191584,-0.00098421,0.00048128,0.04699361,-0.1822,0.1872,-9.7437,-0.003204,-0.002934,-0.001931,28.9250,0.0320,137,0,0,0.003974,0.003629,-0.031978,0.000621,-0.000061,0.002553,-1.0957,-1.0225,-0.3104
15240,11.0,0.003282,0.002605,-0.032038,0.001203,0.000459,0.001705,-1.1272,-1.0724,0.1073,-0.00241673,-0.00246888,-0.00191590,-0.00096641,0.00046779,0.04718757,-0.1688,0.1993,-9.7266,-0.003497,-0.000565,-0.004124,28.9250,0.0330,137,0,0,0.003982,0.003636,-0.032617,0.000504,-0.000045,-0.004482,-1.0959,-1.0224,-0.3102
15251,11.0,0.003291,0.002613,-0.032544,0.001396,0.000293,-0.004029,-1.1268,-1.0706,0.1072,-0.00242588,-0.00248117,-0.00191582,-0.00101977,0.00050698,0.04848839,-0.1523,0.1684,-9.7282,-0.004273,-0.003051,-0.001926,28.9250,0.0330,139,0,0,0.003990,0.003642,-0.032660,0.000539,0.000041,-0.004164,-1.0970,-1.0213,-0.3118
15262,11.0,0.003300,0.002620,-0.032646,0.001446,0.000228,-0.004607,-1.1250,-1.0706,0.0951,-0.00242856,-0.00248547,-0.00190142,-0.00097407,0.00050668,0.04863672,-0.1646,0.1770,-9.7474,-0.000411,-0.003053,-0.000672,28.9250,0.0330,139,0,0,0.004005,0.003656,-0.032835,0.000752,-0.000026,-0.004677,-1.0974,-1.0216,-0.3146
15273,11.0,0.003309,0.002627,-0.032696,0.001335,0.000150,-0.004499,-1.1241,-1.0708,0.0957,-0.00243644,-0.00248945,-0.00190174,-0.00096074,0.00054642,0.04863719,-0.1815,0.1744,-9.7484,-0.003057,-0.003750,-0.001253,28.9250,0.0320,140,0,0,0.004012,0.003663,-0.032881,0.000879,-0.000179,-0.004485,-1.0958,-1.0218,-0.3132
15284,11.0,0.003319,0.002634,-0.032380,0.001105,0.000195,-0.000336,-1.1228,-1.0698,0.0958,-0.00243947,-0.00249147,-0.00190169,-0.00096487,0.00054608,0.04774133,-0.1975,0.1858,-9.7635,-0.001097,-0.001217,-0.001701,28.9250,0.0320,138,0,0,0.004020,0.003670,-0.032375,0.000834,-0.000258,0.001462,-1.0948,-1.0219,-0.3128
15295,11.0,0.003328,0.002641,-0.032382,0.001073,0.000084,-0.000123,-1.1205,-1.0710,0.0968,-0.00244854,-0.00249445,-0.00190194,-0.00096635,0.00059665,0.04774228,-0.1795,0.1699,-9.7398,-0.001180,-0.005188,-0.000457,28.9250,0.0320,135,0,0,0.004035,0.003682,-0.032344,0.000762,-0.000164,0.001724,-1.0922,-1.0228,-0.3782
15306,11.0,0.003337,0.002647,-0.032458,0.000986,0.000032,-0.000645,-1.1204,-1.0719,0.0975,-0.00245227,-0.00249567,-0.00190180,-0.00095599,0.00057198,0.04793296,-0.1872,0.1733,-9.7239,-0.003073,-0.004232,-0.000744,28.9250,0.0330,135,0,0,0.004043,0.003689,-0.032429,0.000718,-0.000243,0.000910,-1.0916,-1.0235,-0.3779
15317,11.0,0.003346,0.002653,-0.032748,0.001158,0.000056,-0.003775,-1.1199,-1.0715,0.0972,-0.00245880,-0.00250425,-0.00190145,-0.00100491,0.00057324,0.04862450,-0.1597,0.1808,-9.7454,-0.003343,-0.004257,-0.002116,28.9250,0.0330,139,0,0,0.004059,0.003702,-0.032851,0.000716,-0.000312,-0.003018,-1.0919,-1.0248,-0.3788
15328,11.0,0.003354,0.002660,-0.032848,0.001273,0.000143,-0.004397,-1.1197,-1.0710,0.0988,-0.00246210,-0.00250716,-0.00190144,-0.00098567,0.00055171,0.04877060,-0.1631,0.1879,-9.7512,-0.002841,-0.002444,0.000615,28.9250,0.0330,136,0,0,0.004066,0.003708,-0.032879,0.000806,-0.000334,-0.002764,-1.0917,-1.0251,-0.3793
15339,11.0,0.003363,0.002666,-0.032895,0.001320,0.000282,-0.004087,-1.1205,-1.0697,0.0982,-0.00246339,-0.00251469,-0.00190110,-0.00101754,0.00052655,0.04877065,-0.1669,0.1957,-9.7297,-0.003855,-0.002359,-0.002412,28.7981,0.0320,133,0,0,0.004074,0.003714,-0.032906,0.000928,-0.000275,-0.002584,-1.0921,-1.0254,-0.3778
15350,11.0,0.003373,0.002672,-0.032441,0.001261,0.000416,0.001693,-1.1204,-1.0698,0.0970,-0.00246465,-0.00251748,-0.00190119,-0.00102266,0.00054084,0.04756816,-0.1784,0.1992,-9.7553,-0.002499,-0.003288,-0.003939,28.7981,0.0320,136,0,0,0.004089,0.003727,-0.032352,0.000988,-0.000211,0.003776,-1.0928,-1.0255,-0.3789
15361,11.0,0.003382,0.002678,-0.032423,0.001128,0.000499,0.001485,-1.1215,-1.0715,0.0972,-0.00246368,-0.00251820,-0.00190128,-0.00099397,0.00051812,0.04756720,-0.1888,0.1981,-9.7776,-0.003845,-0.005280,-0.001649,28.7981,0.0320,140,0,0,0.004097,0.003732,-0.032344,0.001006,-0.000123,0.003557,-1.0934,-1.0259,-0.3793
15372,11.0,0.003391,0.002685,-0.032436,0.001145,0.000626,0.001206,-1.1219,-1.0723,0.0226,-0.00246312,-0.00252113,-0.00181482,-0.00086694,0.00062138,0.04764051,-0.1754,0.2023,-9.7520,-0.004700,-0.002629,-0.002536,28.7981,0.0330,142,0,0,0.004105,0.003738,-0.032309,0.000923,0.000003,0.003527,-1.0937,-1.0272,-0.3792
15383,11.0,0.003399,0.002693,-0.032729,0.001387,0.000443,-0.002197,-1.1194,-1.0723,0.0212,-0.00246941,-0.00253410,-0.00181464,-0.00094444,0.00066453,0.04837784,-0.1476,0.1714,-9.7473,-0.000433,-0.006117,-0.003821,28.7981,0.0330,137,0,0,0.004120,0.003750,-0.032731,0.000932,0.000075,-0.001021,-1.0934,-1.0284,-0.3787
15394,11.0,0.003385,0.002699,-0.032776,0.000818,0.000649,-0.002510,-1.1198,-1.0693,0.0239,-0.00246987,-0.00254951,-0.00181557,-0.00085434,0.00066037,0.04843244,-0.1774,0.2094,-9.7615,-0.003075,-0.001224,0.001839,28.7981,0.0330,139,0,1,0.004128,0.003757,-0.032741,0.001081,0.000017,-0.000867,-1.0913,-1.0294,-0.4590
15405,11.0,0.003394,0.002707,-0.032803,0.000966,0.000652,-0.002378,-1.1204,-1.0670,0.0237,-0.00247074,-0.00255479,-0.00181529,-0.00090011,0.00066189,0.04843327,-0.1659,0.1904,-9.7464,-0.003704,-0.000451,-0.001764,28.7981,0.0330,138,0,0,0.004110,0.003763,-0.032787,0.001044,0.000210,-0.001295,-1.0909,-1.0286,-0.4592
15417,12.0,0.003403,0.002716,-0.032927,0.001122,0.000429,-0.003412,-1.1192,-1.0677,0.0227,-0.00247213,-0.00255685,-0.00181534,-0.00088414,0.00064941,0.04866018,-0.1633,0.1690,-9.7530,-0.001089,-0.003944,-0.003330,28.7638,0.0330,138,0,0,0.004125,0.003776,-0.032934,0.001221,0.000308,-0.002108,-1.0916,-1.0267,-0.4596
15428,11.0,0.003435,0.002724,-0.032965,0.001720,0.000381,-0.003341,-1.1194,-1.0675,0.0228,-0.00247705,-0.00255096,-0.00181457,-0.00098990,0.00067488,0.04866260,-0.1670,0.1798,-9.7519,-0.004041,-0.001426,-0.001179,28.7638,0.0330,141,0,-1,0.004166,0.003790,-0.032992,0.001477,0.000117,-0.002064,-1.0908,-1.0274,-0.4608
15438,10.0,0.003444,0.002731,-0.033014,0.001640,0.000408,-0.003394,-1.1196,-1.0660,0.0224,-0.00247885,-0.00255573,-0.00181476,-0.00096120,0.00066342,0.04870252,-0.1711,0.1871,-9.7436,-0.003351,-0.001033,-0.002522,28.7638,0.0330,141,0,0,0.004166,0.003790,-0.032992,0.001477,0.000117,-0.002064,-1.0908,-1.0274,-0.4608
15449,11.0,0.003454,0.002738,-0.033017,0.001552,0.000328,-0.002781,-1.1179,-1.0660,0.0220,-0.00248433,-0.00256225,-0.00181501,-0.00096387,0.00069821,0.04862424,-0.1738,0.1769,-9.7375,-0.001403,-0.004085,-0.002720,28.7638,0.0330,133,0,0,0.004182,0.003804,-0.033026,0.001439,0.000235,-0.001532,-1.0913,-1.0243,-0.4607
15460,11.0,0.003464,0.002745,-0.033060,0.001486,0.000229,-0.002875,-1.1189,-1.0661,0.0206,-0.00248675,-0.00256610,-0.00181510,-0.00094056,0.00068323,0.04865513,-0.1742,0.1735,-9.7528,-0.004614,-0.003561,-0.004084,28.7638,0.0330,133,0,0,0.004190,0.003811,-0.033039,0.001425,0.000161,-0.001238,-1.0903,-1.0244,-0.4608
15471,11.0,0.003474,0.002753,-0.033091,0.001402,-0.000005,-0.002794,-1.1174,-1.0665,0.0207,-0.00249954,-0.00257051,-0.00181569,-0.00093578,0.00077199,0.04865668,-0.1780,0.1550,-9.7512,-0.003761,-0.004216,-0.002071,28.7638,0.0340,139,0,0,0.004206,0.003825,-0.033622,0.001565,-0.000054,-0.007019,-1.0910,-1.0238,-0.4620
15482,11.0,0.003484,0.002760,-0.033624,0.001228,0.000118,-0.008498,-1.1159,-1.0656,-0.0333,-0.00250257,-0.00257372,-0.00175172,-0.00081936,0.00080395,0.04983940,-0.1900,0.1886,-9.7470,-0.002120,-0.000579,-0.003580,28.8774,0.0340,132,0,0,0.004214,0.003833,-0.033739,0.001527,-0.000291,-0.007408,-1.0910,-1.0245,-0.4624
15493,11.0,0.003494,0.002767,-0.033717,0.001128,0.000107,-0.008409,-1.1159,-1.0652,-0.0330,-0.00250948,-0.00257465,-0.00175196,-0.00079986,0.00082719,0.04983946,-0.1855,0.1768,-9.7488,-0.004332,-0.002085,-0.001425,28.8774,0.0340,141,0,0,0.004231,0.003846,-0.033884,0.001375,-0.000200,-0.007027,-1.0897,-1.0251,-0.5077
15504,11.0,0.003504,0.002773,-0.033866,0.001028,0.000280,-0.008793,-1.1148,-1.0660,-0.0325,-0.00251157,-0.00257607,-0.00175191,-0.00078893,0.00081212,0.04997920,-0.1861,0.1987,-9.7284,-0.001253,-0.004238,-0.001061,28.8774,0.0330,139,0,0,0.004240,0.003852,-0.033418,0.001322,-0.000144,-0.000939,-1.0906,-1.0252,-0.5074
15515,11.0,0.003489,0.002780,-0.033435,0.000519,0.000396,-0.002780,-1.1149,-1.0644,-0.0325,-0.00251167,-0.00259016,-0.00175239,-0.00074841,0.00080912,0.04874365,-0.1774,0.1963,-9.7653,-0.002388,-0.003101,-0.001904,28.8774,0.0330,141,0,1,0.004248,0.003858,-0.033425,0.001229,-0.000006,-0.000565,-1.0900,-1.0259,-0.5077
15526,11.0,0.003497,0.002787,-0.033510,0.000676,0.000187,-0.003247,-1.1145,-1.0665,-0.0311,-0.00251400,-0.00258959,-0.00175222,-0.00074989,0.00079317,0.04885158,-0.1710,0.1632,-9.7521,-0.002488,-0.005871,0.000507,28.8774,0.0330,136,0,0,0.004238,0.003871,-0.033498,0.001107,0.000093,-0.000710,-1.0897,-1.0259,-0.5081
15537,11.0,0.003505,0.002795,-0.033546,0.000881,0.000017,-0.003338,-1.1132,-1.0649,-0.0311,-0.00252507,-0.00259494,-0.00175220,-0.00080805,0.00086256,0.04885391,-0.1622,0.1603,-9.7669,-0.003592,-0.001884,-0.001709,28.8774,0.0330,139,0,0,0.004246,0.003878,-0.033198,0.001122,-0.000029,0.002832,-1.0892,-1.0266,-0.5072
15548,11.0,0.003536,0.002801,-0.033294,0.001559,0.000144,0.000243,-1.1125,-1.0669,-0.0315,-0.00252783,-0.00258481,-0.00175147,-0.00088112,0.00085793,0.04818976,-0.1620,0.1910,-9.7339,-0.002047,-0.003528,-0.002137,28.8774,0.0330,137,0,-1,0.004254,0.003886,-0.033217,0.001223,-0.000252,0.002344,-1.0895,-1.0262,-0.5073
15559,11.0,0.003522,0.002808,-0.033290,0.001002,0.000026,0.000446,-1.1101,-1.0658,-0.0321,-0.00253689,-0.00260317,-0.00175236,-0.00082452,0.00091038,0.04818962,-0.1704,0.1660,-9.7405,-0.001323,-0.005039,-0.003148,28.9012,0.0330,139,0,1,0.004295,0.003898,-0.033252,0.001443,-0.000151,0.001808,-1.0893,-1.0252,-0.5092
15570,11.0,0.003531,0.002815,-0.033353,0.001135,0.000104,-0.000359,-1.1086,-1.0646,-0.0303,-0.00254039,-0.00260501,-0.00175227,-0.00081045,0.00088623,0.04834843,-0.1638,0.1838,-9.7593,-0.000887,-0.001241,0.001263,28.9012,0.0340,133,0,0,0.004277,0.003906,-0.033682,0.001359,-0.000264,-0.002840,-1.0885,-1.0255,-0.5097
15581,11.0,0.003540,0.002820,-0.033698,0.001175,0.000393,-0.004002,-1.1087,-1.0641,-0.0305,-0.00253733,-0.00260994,-0.00175163,-0.00081932,0.00080079,0.04913685,-0.1703,0.2101,-9.7291,-0.001492,-0.003177,-0.001499,28.9012,0.0340,133,0,0,0.004285,0.003913,-0.033709,0.001371,-0.000242,-0.002749,-1.0882,-1.0248,-0.5089
15592,11.0,0.003549,0.002827,-0.033794,0.001287,0.000537,-0.004618,-1.1112,-1.0637,-0.0345,-0.00253816,-0.00261238,-0.00174720,-0.00079695,0.00079839,0.04925884,-0.1630,0.2002,-9.7575,-0.006889,-0.002471,-0.002447,28.9012,0.0340,140,0,0,0.004328,0.003927,-0.033834,0.001471,-0.000145,-0.002949,-1.0891,-1.0221,-0.5104
15603,11.0,0.003559,0.002834,-0.033844,0.001174,0.000510,-0.004589,-1.1112,-1.0641,-0.0337,-0.00254051,-0.00261359,-0.00174745,-0.00077629,0.00081024,0.04925868,-0.1852,0.1843,-9.7547,-0.003181,-0.003462,-0.000642,28.9012,0.0340,141,0,0,0.004336,0.003933,-0.033970,0.001501,-0.000072,-0.003988,-1.0909,-1.0217,-0.5104
15614,11.0,0.003568,0.002842,-0.033984,0.001196,0.000580,-0.005421,-1.1120,-1.0629,-0.0342,-0.00254140,-0.00261560,-0.00174753,-0.00076030,0.00080095,0.04946557,-0.1724,0.1934,-9.7378,-0.004021,-0.001089,-0.002554,28.9012,0.0340,135,0,0,0.004353,0.003947,-0.034032,0.001418,0.000080,-0.003510,-1.0928,-1.0196,-0.5112
15626,12.0,0.003580,0.002850,-0.034049,0.000952,0.000738,-0.005297,-1.1138,-1.0638,-0.0342,-0.00253782,-0.00261202,-0.00174770,-0.00070062,0.00075826,0.04946370,-0.2006,0.2052,-9.7460,-0.003977,-0.002770,-0.002008,28.9012,0.0340,138,0,0,0.004362,0.003954,-0.034139,0.001394,0.000200,-0.004062,-1.0932,-1.0187,-0.5120
15637,11.0,0.003589,0.002857,-0.034175,0.001085,0.000747,-0.006113,-1.1141,-1.0641,-0.0317,-0.00253753,-0.00261348,-0.00174782,-0.00068878,0.00075703,0.04962335,-0.1646,0.1935,-9.7578,-0.002958,-0.003444,0.002274,28.9012,0.0340,140,0,0,0.004370,0.003961,-0.034179,0.001270,0.000273,-0.003900,-1.0942,-1.0175,-0.5122
15648,11.0,0.003598,0.002866,-0.034103,0.001149,0.000602,-0.004517,-1.1141,-1.0635,-0.0310,-0.00254145,-0.00261814,-0.00174793,-0.00072191,0.00080447,0.04930912,-0.1693,0.1758,-9.7581,-0.003705,-0.003070,-0.000822,28.9012,0.0340,137,0,0,0.004386,0.003976,-0.034150,0.001332,0.000361,-0.002668,-1.0935,-1.0149,-0.5115
15659,11.0,0.003607,0.002873,-0.034204,0.001174,0.000659,-0.005089,-1.1138,-1.0624,-0.0326,-0.00254191,-0.00262007,-0.00174804,-0.00070780,0.00079925,0.04942992,-0.1723,0.1947,-9.7532,-0.002332,-0.001312,-0.004220,28.9012,0.0340,134,0,0,0.004394,0.003983,-0.034176,0.001385,0.000303,-0.002568,-1.0936,-1.0148,-0.5116
15670,11.0,0.003616,0.002882,-0.034259,0.001261,0.000588,-0.004836,-1.1142,-1.0599,-0.0341,-0.00254516,-0.00262635,-0.00174797,-0.00074550,0.00082441,0.04943104,-0.1640,0.1804,-9.7346,-0.004093,-0.000455,-0.004040,28.9012,0.0340,135,0,0,0.004384,0.003998,-0.034123,0.001485,0.000215,-0.001025,-1.0939,-1.0128,-0.5139
15681,11.0,0.003601,0.002889,-0.034176,0.000685,0.000661,-0.003419,-1.1139,-1.0600,-0.0342,-0.00254501,-0.00263967,-0.00174891,-0.00066769,0.00083090,0.04912126,-0.1776,0.1991,-9.7716,-0.002176,-0.005800,-0.002551,28.9012,0.0340,140,0,1,0.004392,0.004005,-0.034186,0.001553,0.000210,-0.001373,-1.0944,-1.0110,-0.5156
15692,11.0,0.003610,0.002896,-0.034212,0.000703,0.000671,-0.003261,-1.1138,-1.0603,-0.0338,-0.00254505,-0.00263891,-0.00174887,-0.00066790,0.00082775,0.04912121,-0.1826,0.1913,-9.7430,-0.002310,-0.002869,-0.001107,28.9012,0.0340,135,0,0,0.004373,0.004011,-0.034200,0.001500,0.000353,-0.001362,-1.0928,-1.0137,-0.6414
